onset	duration	trial_type	offset	trial	block	blockCntr	frequency	amplitude_1	amplitude_2	amplitude_3	amplitude_4	amplitude_5	amplitude_6	amplitude_7	amplitude_8	transition	sham	mode	rewardFraction	guess	outcome	correct	word	when	answer	runNr	scanNr	subjectNr	target	reactionTime	outcomeEyeClosed	outcomePupilArea	outcomeDilation	guessEyeClosed	guessPupilArea	guessDilation	nrBlinks	trialInBlock	isReward	isPanas	isPunish	beforePanasReward	beforePanasVLPFC
20.3585109845325	2.50870451819151	punish_rtpj	22.8672155027241	1	3	1	10	750	250	250	250	0	0	0	0	2000	0	BLOCKED	0.25	1	7	1	n/a	n/a	n/a	2	6	215	RTPJ	747.70666950196	0	2132.84019975031	0.04125	0.230591852421214	1796.6983016983	0.543543543543544	1	1	0	0	1	0	0
23.8680148846507	2.51883872055262	punish_rtpj	26.3868536052033	2	3	1	10	750	250	250	250	0	0	0	0	2000	0	BLOCKED	0.25	1	1	-1	n/a	n/a	n/a	2	6	215	RTPJ	325.547322742641	0	2562.16604244694	0.1525	0	2103.11606456572	0.529230769230769	1	2	0	0	1	0	0
27.3876653287187	2.51879675917327	punish_rtpj	29.906462087892	3	3	1	10	750	250	250	250	0	0	0	0	2000	0	BLOCKED	0.25	-1	8	-1	n/a	n/a	n/a	2	6	215	RTPJ	656.67797742784	0	2520.67166042447	0.0075	0	2235.36664104535	0.380769230769231	0	3	0	0	1	0	0
30.9070883350447	2.53553088728339	punish_rtpj	33.4426192223281	4	3	1	10	750	250	250	250	0	0	0	0	2000	0	BLOCKED	0.25	1	8	1	n/a	n/a	n/a	2	6	215	RTPJ	1188.03705719113	0	2251.87141073658	-0.45	0	2302.40814757879	0.443846153846154	0	4	0	0	1	0	0
34.4432895465717	2.51883166821301	punish_rtpj	36.9621212147847	5	3	1	10	750	250	250	250	0	0	0	0	2000	0	BLOCKED	0.25	1	3	-1	n/a	n/a	n/a	2	6	215	RTPJ	773.749171793461	0	2466.15480649189	0.175	0	2211.57878554958	0.422307692307692	0	5	0	0	1	0	0
37.9463666557148	2.51859506245702	punish_rtpj	40.4649617181718	6	3	1	10	750	250	250	250	0	0	0	0	2000	0	BLOCKED	0.25	-1	10	-1	n/a	n/a	n/a	2	6	215	RTPJ	524.12973330915	0.418227215980025	2422.79399141631	0.00860215053763441	0	2074.25365103766	0.412307692307692	2	6	0	0	1	0	0
41.4491161840111	2.51869696865975	punish_rtpj	43.9678131526709	7	3	1	10	750	250	250	250	0	0	0	0	2000	0	BLOCKED	0.25	-1	8	-1	n/a	n/a	n/a	2	6	215	RTPJ	490.005610130727	0.588014981273408	2466.16363636364	1.29573170731707	0	2192.64488854727	0.474615384615385	1	7	0	0	1	0	0
44.951990185976	2.51866875932365	punish_rtpj	47.4706589452997	8	3	1	10	750	250	250	250	0	0	0	0	2000	0	BLOCKED	0.25	-1	10	-1	n/a	n/a	n/a	2	6	215	RTPJ	190.57624964416	0.436953807740325	2465.54545454545	0.00222222222222222	0	2100.43658724058	0.447692307692308	1	8	0	0	1	0	0
48.4724012241364	6.02066121967881	panas_none	54.4930624438152	9	5	2	n/a	n/a	n/a	n/a	n/a	n/a	n/a	n/a	n/a	n/a	n/a	n/a	n/a	n/a	n/a	n/a	nervous	At this moment	3	2	6	215	NONE	n/a	0	1507.18102372035	0.43875	0	1788.476556495	-0.777692307692308	0	1	0	1	0	0	0
55.4770568217039	6.02164114133269	panas_none	61.4986979630366	10	5	2	n/a	n/a	n/a	n/a	n/a	n/a	n/a	n/a	n/a	n/a	n/a	n/a	n/a	n/a	n/a	n/a	active	At this moment	4	2	6	215	NONE	n/a	0.433208489388265	1828.56387665198	0.553097345132743	0.239046887009992	1877.94141414141	0.712550607287449	2	2	0	1	0	0	0
62.4828601864427	6.02153041970729	panas_none	68.50439060615	11	5	2	n/a	n/a	n/a	n/a	n/a	n/a	n/a	n/a	n/a	n/a	n/a	n/a	n/a	n/a	n/a	n/a	afraid	At this moment	1	2	6	215	NONE	n/a	0	1983.19850187266	0.2325	0	1841.98001537279	-0.134615384615385	0	3	0	1	0	0	0
69.511146741055	10.0855243462473	panas_none	79.5966710873023	12	5	2	n/a	n/a	n/a	n/a	n/a	n/a	n/a	n/a	n/a	n/a	n/a	n/a	n/a	n/a	n/a	n/a	n/a	n/a	n/a	2	6	215	NONE	n/a	0	2281.22596754057	0.375	0	1787.35434281322	0.401538461538462	0	4	0	1	0	0	0
80.5809718890414	2.51857284760474	punish_vlpfc	83.0995447366461	13	4	3	10	0	0	0	0	250	250	250	750	2000	0	BLOCKED	0.25	-1	10	-1	n/a	n/a	n/a	2	6	215	VLPFC	357.518368683755	0	2414.94631710362	0.13375	0	1713.81706379708	0.818461538461538	0	1	0	0	1	0	0
84.0837355219945	2.5188165057078	punish_vlpfc	86.6025520277023	14	4	3	10	0	0	0	0	250	250	250	750	2000	0	BLOCKED	0.25	1	7	1	n/a	n/a	n/a	2	6	215	VLPFC	923.973735705018	0	2356.61298377029	-0.21	0	2224.93159108378	0.511538461538461	0	2	0	0	1	0	0
87.5864875186011	2.51884118887037	punish_vlpfc	90.1053287074715	15	4	3	10	0	0	0	0	250	250	250	750	2000	0	BLOCKED	0.25	1	1	-1	n/a	n/a	n/a	2	6	215	VLPFC	673.818319916725	0.0362047440699126	2401.95466321244	-0.0544747081712062	0	2024.48731744812	0.494615384615385	1	3	0	0	1	0	0
91.0893502368331	2.51876819722354	punish_vlpfc	93.6081184340566	16	4	3	10	0	0	0	0	250	250	250	750	2000	0	BLOCKED	0.25	-1	2	1	n/a	n/a	n/a	2	6	215	VLPFC	656.695608265698	0	2037.9975031211	-0.2725	0	1665.86241352806	0.608461538461538	0	4	0	0	1	0	0
94.592519731544	2.51840500207246	punish_vlpfc	97.1109247336164	17	4	3	10	0	0	0	0	250	250	250	750	2000	0	BLOCKED	0.25	-1	10	-1	n/a	n/a	n/a	2	6	215	VLPFC	325.902055084705	0	2115.40823970037	0.01125	0	1696.91006917756	0.660769230769231	0	5	0	0	1	0	0
98.1118387159631	2.51866981717944	punish_vlpfc	100.630508533143	18	4	3	10	0	0	0	0	250	250	250	750	2000	0	BLOCKED	0.25	1	0	-1	n/a	n/a	n/a	2	6	215	VLPFC	1241.49973501265	0.0786516853932584	2339.84281842818	0.19674355495251	0	1900.83551114527	0.552307692307692	1	6	0	0	1	0	0
101.614753621459	2.51867016980053	punish_vlpfc	104.13342379126	19	4	3	10	0	0	0	0	250	250	250	750	2000	0	BLOCKED	0.25	-1	7	-1	n/a	n/a	n/a	2	6	215	VLPFC	739.940287895501	0.590511860174782	2184.7256097561	0.149847094801223	0.281322059953882	2132.30374331551	0.87459807073955	2	7	0	0	1	0	0
105.11753876403	2.51872694107145	punish_vlpfc	107.636265705101	20	4	3	10	0	0	0	0	250	250	250	750	2000	0	BLOCKED	0.25	1	4	-1	n/a	n/a	n/a	2	6	215	VLPFC	1056.81711995602	0	2342.74781523096	0.3025	0	1586.56033820138	0.700769230769231	0	8	0	0	1	0	0
108.620363047048	6.02145883852243	panas_none	114.641821885571	21	5	4	n/a	n/a	n/a	n/a	n/a	n/a	n/a	n/a	n/a	n/a	n/a	n/a	n/a	n/a	n/a	n/a	distressed	At this moment	4	2	6	215	NONE	n/a	0.374531835205993	1280.15369261477	0.597194388777555	0	1460.76633358955	-0.753846153846154	2	1	0	1	0	0	1
115.643081784844	6.02119860744476	panas_none	121.664280392289	22	5	4	n/a	n/a	n/a	n/a	n/a	n/a	n/a	n/a	n/a	n/a	n/a	n/a	n/a	n/a	n/a	n/a	enthusiastic	At this moment	3	2	6	215	NONE	n/a	0	1683.58676654182	0.4825	0	1831.74019984627	-0.49	2	2	0	1	0	0	1
122.648314263232	6.02163408900797	panas_none	128.66994835224	23	5	4	n/a	n/a	n/a	n/a	n/a	n/a	n/a	n/a	n/a	n/a	n/a	n/a	n/a	n/a	n/a	n/a	nervous	At this moment	1	2	6	215	NONE	n/a	0	1966.95880149813	0.29625	0	2072.57494235204	-0.215384615384615	0	3	0	1	0	0	1
129.670781937987	12.2599066764787	panas_none	141.930688614465	24	5	4	n/a	n/a	n/a	n/a	n/a	n/a	n/a	n/a	n/a	n/a	n/a	n/a	n/a	n/a	n/a	n/a	n/a	n/a	n/a	2	6	215	NONE	n/a	0	1906.25593008739	0.3575	0	1300.23750960799	0.496923076923077	1	4	0	1	0	0	1
142.931509506017	2.51872905677558	reward_vlpfc	145.450238562793	25	2	5	10	0	0	0	0	250	250	250	750	2000	0	BLOCKED	0.75	1	6	1	n/a	n/a	n/a	2	6	215	VLPFC	340.990168690681	0	1994.59800249688	0.11	0	1563.37663335895	0.58	0	1	1	0	0	0	0
146.450965658307	2.51873610910775	reward_vlpfc	148.969701767415	26	2	5	10	0	0	0	0	250	250	250	750	2000	0	BLOCKED	0.75	1	10	1	n/a	n/a	n/a	2	6	215	VLPFC	890.683198273182	0	2228.25218476904	-0.13875	0	1955.73866256726	0.549230769230769	0	2	1	0	0	0	0
149.972458876967	2.53351356745512	reward_vlpfc	152.505972444423	27	2	5	10	0	0	0	0	250	250	250	750	2000	0	BLOCKED	0.75	1	6	1	n/a	n/a	n/a	2	6	215	VLPFC	871.310792423785	0	2251.55056179775	-0.0325	0	1915.75096079938	0.504615384615385	0	3	1	0	0	0	0
153.506798272602	2.5187696076855	reward_vlpfc	156.025567880288	28	2	5	10	0	0	0	0	250	250	250	750	2000	0	BLOCKED	0.75	-1	4	1	n/a	n/a	n/a	2	6	215	VLPFC	1073.73672442138	0	2346.99126092385	0.00125	0	1958.93543428132	0.607692307692308	0	4	1	0	0	0	0
157.02636020989	2.51855521676691	reward_vlpfc	159.544915426657	29	2	5	10	0	0	0	0	250	250	250	750	2000	0	BLOCKED	0.75	-1	9	-1	n/a	n/a	n/a	2	6	215	VLPFC	807.311224028468	0	2550.76654182272	0.26375	0	2134.87471176018	0.456923076923077	0	5	1	0	0	0	0
160.529152052179	2.53542439705134	reward_vlpfc	163.06457644923	30	2	5	10	0	0	0	0	250	250	250	750	2000	0	BLOCKED	0.75	1	2	-1	n/a	n/a	n/a	2	6	215	VLPFC	736.067499287426	0	2458.38077403246	0.13375	0	2011.94542659493	0.589230769230769	0	6	1	0	0	0	0
164.065421318702	2.518720593974	reward_vlpfc	166.584141912676	31	2	5	10	0	0	0	0	250	250	250	750	2000	0	BLOCKED	0.75	1	9	1	n/a	n/a	n/a	2	6	215	VLPFC	556.414255447686	0	2215.3670411985	0.06875	0	1796.44581091468	0.497692307692308	0	7	1	0	0	0	0
167.584751234241	2.53560035276413	reward_vlpfc	170.120351587005	32	2	5	10	0	0	0	0	250	250	250	750	2000	0	BLOCKED	0.75	-1	4	1	n/a	n/a	n/a	2	6	215	VLPFC	1088.24654673785	0	2158.75405742821	-0.07125	0	1738.29285165257	0.669230769230769	0	8	1	0	0	0	0
171.121155905575	6.02150397345423	panas_none	177.142659879029	33	5	6	n/a	n/a	n/a	n/a	n/a	n/a	n/a	n/a	n/a	n/a	n/a	n/a	n/a	n/a	n/a	n/a	irritable	At this moment	3	2	6	215	NONE	n/a	0	1579.24469413233	0.3925	0	1619.16064565719	-0.515384615384615	3	1	0	1	0	1	1
178.143418357432	6.0216432570368	panas_none	184.165061614469	34	5	6	n/a	n/a	n/a	n/a	n/a	n/a	n/a	n/a	n/a	n/a	n/a	n/a	n/a	n/a	n/a	n/a	strong	At this moment	3	2	6	215	NONE	n/a	0	2019.03870162297	0.485	0	1872.14604150653	0.226923076923077	1	2	0	1	0	1	1
185.149137094177	6.02153817727415	panas_none	191.170675271451	35	5	6	n/a	n/a	n/a	n/a	n/a	n/a	n/a	n/a	n/a	n/a	n/a	n/a	n/a	n/a	n/a	n/a	active	At this moment	4	2	6	215	NONE	n/a	0	1706.06991260924	-0.00625	0	1600.73943120676	0.19	0	3	0	1	0	1	1
192.154786718056	10.0081574334577	panas_none	202.162944151513	36	5	6	n/a	n/a	n/a	n/a	n/a	n/a	n/a	n/a	n/a	n/a	n/a	n/a	n/a	n/a	n/a	n/a	n/a	n/a	n/a	2	6	215	NONE	n/a	0	1880.3645443196	0.325	0.358954650269024	1611.34052757794	0.825721153846154	1	4	0	1	0	1	1
203.1637086244	2.51871459949018	reward_rtpj	205.68242322389	37	1	7	10	750	250	250	250	0	0	0	0	2000	0	BLOCKED	0.75	1	7	1	n/a	n/a	n/a	2	6	215	RTPJ	573.136041969061	0	2241.11610486891	0.0975	0	1649.86010760953	0.812307692307692	0	1	1	0	0	0	0
206.666610130467	2.53538208305091	reward_rtpj	209.201992213517	38	1	7	10	750	250	250	250	0	0	0	0	2000	0	BLOCKED	0.75	1	7	1	n/a	n/a	n/a	2	6	215	RTPJ	590.469618365169	0	2228.63670411985	-0.11375	0	1989.08993082244	0.56	0	2	1	0	0	0	0
210.207385485098	2.51417783373594	reward_rtpj	212.721563318834	39	1	7	10	750	250	250	250	0	0	0	0	2000	0	BLOCKED	0.75	1	4	-1	n/a	n/a	n/a	2	6	215	RTPJ	1102.82512929291	0	2430.0074906367	0.1225	0.277478862413528	2204.78617021277	1.04690831556503	1	3	1	0	0	0	0
213.722306634724	2.51872341490537	reward_rtpj	216.24103004963	40	1	7	10	750	250	250	250	0	0	0	0	2000	0	BLOCKED	0.75	1	9	1	n/a	n/a	n/a	2	6	215	RTPJ	990.650017052889	0	2353.5393258427	-0.13625	0	2052.70868562644	0.576923076923077	0	4	1	0	0	0	0
217.225277606264	2.53532742747666	reward_rtpj	219.76060503374	41	1	7	10	750	250	250	250	0	0	0	0	2000	0	BLOCKED	0.75	-1	3	1	n/a	n/a	n/a	2	6	215	RTPJ	574.72034855932	0	2352.78277153558	-0.21375	0	2012.33282090699	0.534615384615385	0	5	1	0	0	0	0
220.761480580866	2.51877736525984	reward_rtpj	223.280257946126	42	1	7	10	750	250	250	250	0	0	0	0	2000	0	BLOCKED	0.75	1	7	1	n/a	n/a	n/a	2	6	215	RTPJ	573.260515645146	0	2342.13732833958	-0.04625	0	2162.46041506533	0.473076923076923	0	6	1	0	0	0	0
224.264250560924	2.51870719453692	reward_rtpj	226.782957755461	43	1	7	10	750	250	250	250	0	0	0	0	2000	0	BLOCKED	0.75	-1	2	1	n/a	n/a	n/a	2	6	215	RTPJ	680.465496279299	0	2297.39700374532	-0.06125	0	1745.88009223674	0.760769230769231	0	7	1	0	0	0	0
227.767002557524	2.51876220273974	reward_rtpj	230.285764760263	44	1	7	10	750	250	250	250	0	0	0	0	2000	0	BLOCKED	0.75	1	0	-1	n/a	n/a	n/a	2	6	215	RTPJ	506.725280955434	0.48689138576779	2341.92214111922	0.721271393643032	0	2008.33973866257	0.482307692307692	1	8	1	0	0	0	0
231.286612450682	6.02152407260985	panas_none	237.308136523291	45	5	8	n/a	n/a	n/a	n/a	n/a	n/a	n/a	n/a	n/a	n/a	n/a	n/a	n/a	n/a	n/a	n/a	jittery	At this moment	2	2	6	215	NONE	n/a	0	1367.41448189763	0.4675	0	1663.0192159877	-0.766153846153846	0	1	0	1	0	1	0
238.292329776958	6.02160517443716	panas_none	244.313934951395	46	5	8	n/a	n/a	n/a	n/a	n/a	n/a	n/a	n/a	n/a	n/a	n/a	n/a	n/a	n/a	n/a	n/a	active	At this moment	3	2	6	215	NONE	n/a	0	1677.59176029963	0.17625	0	1624.35511145273	0.0123076923076923	0	2	0	1	0	1	0
245.314652526267	6.02149868421256	panas_none	251.336151210479	47	5	8	n/a	n/a	n/a	n/a	n/a	n/a	n/a	n/a	n/a	n/a	n/a	n/a	n/a	n/a	n/a	n/a	guilty	At this moment	1	2	6	215	NONE	n/a	0	1658.46941323346	0.32125	0	1668.23597232898	-0.0176923076923077	0	3	0	1	0	1	0
252.320329654247	14.1782530031502	panas_none	266.498582657397	48	5	8	n/a	n/a	n/a	n/a	n/a	n/a	n/a	n/a	n/a	n/a	n/a	n/a	n/a	n/a	n/a	n/a	n/a	n/a	n/a	2	6	215	NONE	n/a	0.309612983770287	1645.55696202532	1.5036231884058	0.529592621060722	1202.62091503268	1.1672131147541	7	4	0	1	0	1	0
267.499374986999	2.51867686951158	reward_vlpfc	270.01805185651	49	2	9	10	0	0	0	0	250	250	250	750	2000	0	BLOCKED	0.75	1	1	-1	n/a	n/a	n/a	2	6	215	VLPFC	590.081387445331	1	n/a	n/a	1	n/a	n/a	1	1	1	0	0	0	0
271.002135446392	2.51876326059551	reward_vlpfc	273.520898706988	50	2	9	10	0	0	0	0	250	250	250	750	2000	0	BLOCKED	0.75	-1	3	1	n/a	n/a	n/a	2	6	215	VLPFC	823.627854041755	0	2343.38951310861	-0.06625	0	2167.01614142967	0.384615384615385	2	2	1	0	0	0	0
274.505012269296	2.51872764630616	reward_vlpfc	277.023739915602	51	2	9	10	0	0	0	0	250	250	250	750	2000	0	BLOCKED	0.75	-1	3	1	n/a	n/a	n/a	2	6	215	VLPFC	540.404754541814	0	2437.60674157303	-0.12875	0	2105.02382782475	0.59	0	3	1	0	0	0	0
278.024536123984	2.51874915592373	reward_vlpfc	280.543285279907	52	2	9	10	0	0	0	0	250	250	250	750	2000	0	BLOCKED	0.75	1	7	1	n/a	n/a	n/a	2	6	215	VLPFC	289.739102475345	0	2473.10611735331	-0.05625	0	2175.39277478862	0.485384615384615	0	4	1	0	0	0	0
281.54407232026	2.51875515040757	reward_vlpfc	284.062827470668	53	2	9	10	0	0	0	0	250	250	250	750	2000	0	BLOCKED	0.75	-1	4	1	n/a	n/a	n/a	2	6	215	VLPFC	390.421380423009	0	2393.41947565543	0.11375	0	1984.56802459646	0.524615384615385	0	5	1	0	0	0	0
285.063600406356	2.51885176736118	reward_vlpfc	287.582452173717	54	2	9	10	0	0	0	0	250	250	250	750	2000	0	BLOCKED	0.75	1	8	1	n/a	n/a	n/a	2	6	215	VLPFC	991.44269926101	0	2254.68789013733	-0.1825	0	2022.43274404304	0.556153846153846	0	6	1	0	0	0	0
288.566519895867	2.51861022496223	reward_vlpfc	291.085130120829	55	2	9	10	0	0	0	0	250	250	250	750	2000	0	BLOCKED	0.75	-1	2	1	n/a	n/a	n/a	2	6	215	VLPFC	693.033458732069	0	2222.93757802747	-0.1125	0	1898.14604150653	0.586153846153846	0	7	1	0	0	0	0
292.069344884112	2.51876326058806	reward_vlpfc	294.588108144701	56	2	9	10	0	0	0	0	250	250	250	750	2000	0	BLOCKED	0.75	1	0	-1	n/a	n/a	n/a	2	6	215	VLPFC	757.839814014733	0	2287.41697877653	0.3125	0.230591852421214	1722.73726273726	0.519519519519519	1	8	1	0	0	0	0
295.588802799493	6.05505826813726	panas_none	301.64386106763	57	5	10	n/a	n/a	n/a	n/a	n/a	n/a	n/a	n/a	n/a	n/a	n/a	n/a	n/a	n/a	n/a	n/a	active	At this moment	4	2	6	215	NONE	n/a	0	1200.21473158552	0.5375	0	1410.04458109147	-0.856923076923077	0	1	0	1	0	1	1
302.644589926228	6.02148175861686	panas_none	308.666071684845	58	5	10	n/a	n/a	n/a	n/a	n/a	n/a	n/a	n/a	n/a	n/a	n/a	n/a	n/a	n/a	n/a	n/a	enthusiastic	At this moment	3	2	6	215	NONE	n/a	0	1628.79900124844	0.4225	0	1327.70868562644	0.0669230769230769	0	2	0	1	0	1	1
309.667372135028	6.02111750561744	panas_none	315.688489640646	59	5	10	n/a	n/a	n/a	n/a	n/a	n/a	n/a	n/a	n/a	n/a	n/a	n/a	n/a	n/a	n/a	n/a	excited	At this moment	3	2	6	215	NONE	n/a	0	1293.6429463171	0.40125	0	922.670253651038	0.0584615384615385	0	3	0	1	0	1	1
316.689348967411	14.4616806202978	panas_none	331.151029587708	60	5	10	n/a	n/a	n/a	n/a	n/a	n/a	n/a	n/a	n/a	n/a	n/a	n/a	n/a	n/a	n/a	n/a	n/a	n/a	n/a	2	6	215	NONE	n/a	0.503121098626717	1777.48492462312	1.65151515151515	0.346656418139892	1470.08235294118	0.691037735849057	3	4	0	1	0	1	1
332.135267623693	2.51861410374937	reward_rtpj	334.653881727442	61	1	11	10	750	250	250	250	0	0	0	0	2000	0	BLOCKED	0.75	-1	4	1	n/a	n/a	n/a	2	6	215	RTPJ	590.799667552114	0	2256.59925093633	-0.12125	0	1723.74481168332	0.804615384615385	0	1	1	0	0	0	0
335.654730475701	2.51870402099189	reward_rtpj	338.173434496693	62	1	11	10	750	250	250	250	0	0	0	0	2000	0	BLOCKED	0.75	-1	1	1	n/a	n/a	n/a	2	6	215	RTPJ	606.985829390585	0	2333.84019975031	0.01	0	2125.75019215988	0.506153846153846	0	2	1	0	0	0	0
339.157605182901	2.51864619186523	reward_rtpj	341.676251374766	63	1	11	10	750	250	250	250	0	0	0	0	2000	0	BLOCKED	0.75	1	7	1	n/a	n/a	n/a	2	6	215	RTPJ	556.576106481254	0	2504.77028714107	-0.13125	0	2183.66333589547	0.606153846153846	0	3	1	0	0	0	0
342.660564165473	2.51854957490417	reward_rtpj	345.179113740377	64	1	11	10	750	250	250	250	0	0	0	0	2000	0	BLOCKED	0.75	-1	0	1	n/a	n/a	n/a	2	6	215	RTPJ	573.715743735433	0	2379.22222222222	-0.1425	0	2300.24903920061	0.341538461538462	0	4	1	0	0	0	0
346.163213198014	2.51884542027119	reward_rtpj	348.682058618285	65	1	11	10	750	250	250	250	0	0	0	0	2000	0	BLOCKED	0.75	1	4	-1	n/a	n/a	n/a	2	6	215	RTPJ	439.741165280342	0	2338.74157303371	0.33625	0	2082.62797847809	0.403846153846154	0	5	1	0	0	0	0
349.682848126955	2.51863314504175	reward_rtpj	352.201481271997	66	1	11	10	750	250	250	250	0	0	0	0	2000	0	BLOCKED	0.75	1	0	-1	n/a	n/a	n/a	2	6	215	RTPJ	773.119751080871	0	2462.34082397004	0.00875	0	1995.61568024596	0.558461538461538	0	6	1	0	0	0	0
353.187406931244	2.51699594596028	reward_rtpj	355.704402877204	67	1	11	10	750	250	250	250	0	0	0	0	2000	0	BLOCKED	0.75	-1	3	1	n/a	n/a	n/a	2	6	215	RTPJ	488.034130468965	0	2145.87141073658	-0.11125	0.237509607993851	1983.21774193548	1.06868686868687	1	7	1	0	0	0	0
356.705149719261	2.51877278123794	reward_rtpj	359.223922500499	68	1	11	10	750	250	250	250	0	0	0	0	2000	0	BLOCKED	0.75	1	7	1	n/a	n/a	n/a	2	6	215	RTPJ	1424.48344305903	0	2171.18352059925	-0.13375	0	1881.1714066103	0.503846153846154	0	8	1	0	0	0	0
360.224640780605	6.02170531756428	panas_none	366.24634609817	69	5	12	n/a	n/a	n/a	n/a	n/a	n/a	n/a	n/a	n/a	n/a	n/a	n/a	n/a	n/a	n/a	n/a	active	At this moment	4	2	6	215	NONE	n/a	0	1370.06741573034	0.43875	0	1633.56341275942	-0.703846153846154	0	1	0	1	0	1	0
367.247120796941	6.02148599001021	panas_none	373.268606786951	70	5	12	n/a	n/a	n/a	n/a	n/a	n/a	n/a	n/a	n/a	n/a	n/a	n/a	n/a	n/a	n/a	n/a	nervous	At this moment	1	2	6	215	NONE	n/a	0	1451.61423220974	0.32125	0	1118.52190622598	0.282307692307692	0	2	0	1	0	1	0
374.269418510467	6.02167111375184	panas_none	380.291089624219	71	5	12	n/a	n/a	n/a	n/a	n/a	n/a	n/a	n/a	n/a	n/a	n/a	n/a	n/a	n/a	n/a	n/a	jittery	At this moment	2	2	6	215	NONE	n/a	0	1925.58801498127	0.24125	0	1780.95926210607	0.0369230769230769	0	3	0	1	0	1	0
381.29175536444	8.87398221612722	panas_none	390.165737580568	72	5	12	n/a	n/a	n/a	n/a	n/a	n/a	n/a	n/a	n/a	n/a	n/a	n/a	n/a	n/a	n/a	n/a	n/a	n/a	n/a	2	6	215	NONE	n/a	0	2589.48564294632	0.0925	0	2255.01614142967	0.276153846153846	0	4	0	1	0	1	0
391.149810591966	2.51864337093383	punish_rtpj	393.6684539629	73	3	13	10	750	250	250	250	0	0	0	0	2000	0	BLOCKED	0.25	-1	10	-1	n/a	n/a	n/a	2	6	215	RTPJ	290.685878165066	0	2536.92759051186	0.1725	0	1922.12067640277	0.797692307692308	0	1	0	0	1	0	0
394.652679657303	2.51874492451549	punish_rtpj	397.171424581818	74	3	13	10	750	250	250	250	0	0	0	0	2000	0	BLOCKED	0.25	1	4	-1	n/a	n/a	n/a	2	6	215	RTPJ	639.642362087965	0.370786516853933	2279.81746031746	-0.159045725646123	0	1856.07302075327	0.543846153846154	1	2	0	0	1	0	0
398.172094200827	2.51874950854477	punish_rtpj	400.690843709372	75	3	13	10	750	250	250	250	0	0	0	0	2000	0	BLOCKED	0.25	-1	10	-1	n/a	n/a	n/a	2	6	215	RTPJ	773.670538283885	0	2496.50312109863	0.045	0	2284.47117601845	0.234615384615385	0	3	0	0	1	0	0
401.700099896297	2.51031950241327	punish_rtpj	404.21041939871	76	3	13	10	750	250	250	250	0	0	0	0	2000	0	BLOCKED	0.25	-1	3	1	n/a	n/a	n/a	2	6	215	RTPJ	414.7029151842	0	2330.80399500624	-0.1875	0	1976.8570330515	0.716923076923077	0	4	0	0	1	0	0
405.211221601568	2.51869873175025	punish_rtpj	407.729920333318	77	3	13	10	750	250	250	250	0	0	0	0	2000	0	BLOCKED	0.25	-1	3	1	n/a	n/a	n/a	2	6	215	RTPJ	556.890287920833	0	2294.07740324594	-0.1275	0	2139.07071483474	0.410769230769231	0	5	0	0	1	0	0
408.719068908699	2.51361188402029	punish_rtpj	411.232680792719	78	3	13	10	750	250	250	250	0	0	0	0	2000	0	BLOCKED	0.25	1	1	-1	n/a	n/a	n/a	2	6	215	RTPJ	535.629619941115	0.737827715355805	2566.6619047619	-0.0287081339712919	0	2141.49654112221	0.425384615384615	1	6	0	0	1	0	0
412.23374322667	2.51854216995832	punish_rtpj	414.752285396628	79	3	13	10	750	250	250	250	0	0	0	0	2000	0	BLOCKED	0.25	-1	8	-1	n/a	n/a	n/a	2	6	215	RTPJ	573.278146483004	0.411985018726592	2231.15286624204	0.336170212765957	0	1551.93082244427	0.433846153846154	1	7	0	0	1	0	0
415.736416589767	2.51877383908629	punish_rtpj	418.255190428853	80	3	13	10	750	250	250	250	0	0	0	0	2000	0	BLOCKED	0.25	1	1	-1	n/a	n/a	n/a	2	6	215	RTPJ	1174.60271564126	0	2184.76154806492	0.05625	0	1832.29362029208	0.460769230769231	0	8	0	0	1	0	0
419.2391650602	6.03833401329814	panas_none	425.277499073498	81	5	14	n/a	n/a	n/a	n/a	n/a	n/a	n/a	n/a	n/a	n/a	n/a	n/a	n/a	n/a	n/a	n/a	ashamed	At this moment	1	2	6	215	NONE	n/a	0	1195.87640449438	0.58	0	1316.17986164489	-0.793846153846154	0	1	0	1	0	0	0
426.278316086262	6.02197789023819	panas_none	432.300293976501	82	5	14	n/a	n/a	n/a	n/a	n/a	n/a	n/a	n/a	n/a	n/a	n/a	n/a	n/a	n/a	n/a	n/a	determined	At this moment	4	2	6	215	NONE	n/a	0	965.196004993758	0.59	0	1005.68793235972	-0.462307692307692	0	2	0	1	0	0	0
433.300799628764	6.02147752720867	panas_none	439.322277155973	83	5	14	n/a	n/a	n/a	n/a	n/a	n/a	n/a	n/a	n/a	n/a	n/a	n/a	n/a	n/a	n/a	n/a	jittery	At this moment	2	2	6	215	NONE	n/a	0.137328339575531	1085.69464544139	0.227536231884058	0	1054.57955418909	-0.18	3	3	0	1	0	0	0
440.306370266512	6.9222691868469	panas_none	447.228639453359	84	5	14	n/a	n/a	n/a	n/a	n/a	n/a	n/a	n/a	n/a	n/a	n/a	n/a	n/a	n/a	n/a	n/a	n/a	n/a	n/a	2	6	215	NONE	n/a	0	2037.51435705368	-0.145	0.338201383551115	1805.81649245064	0.891608391608392	2	4	0	1	0	0	0
448.2127410267	2.5187692550719	punish_vlpfc	450.731510281771	85	4	15	10	0	0	0	0	250	250	250	750	2000	0	BLOCKED	0.25	-1	10	-1	n/a	n/a	n/a	2	6	215	VLPFC	840.409938000143	0	2376.9088639201	0.3975	0.25826287471176	1922.50880829016	1.134994807892	1	1	0	0	1	0	0
451.715759248868	2.51851748678831	punish_vlpfc	454.234276735656	86	4	15	10	0	0	0	0	250	250	250	750	2000	0	BLOCKED	0.25	1	0	-1	n/a	n/a	n/a	2	6	215	VLPFC	689.722035825253	0	2545.51935081149	0.0025	0	2210.34973097617	0.543846153846154	0	2	0	0	1	0	0
455.235084227771	2.51881121645869	punish_vlpfc	457.753895444229	87	4	15	10	0	0	0	0	250	250	250	750	2000	0	BLOCKED	0.25	-1	3	1	n/a	n/a	n/a	2	6	215	VLPFC	857.231515042484	0	2542.89513108614	-0.07375	0	2338.36971560338	0.45	0	3	0	0	1	0	0
458.754675784856	2.518732230328	punish_vlpfc	461.273408015184	88	4	15	10	0	0	0	0	250	250	250	750	2000	0	BLOCKED	0.25	-1	7	-1	n/a	n/a	n/a	2	6	215	VLPFC	823.507611766458	0.49438202247191	2253.97530864198	1.95285359801489	0.282859338970023	1812.69989281886	1.25026852846402	2	4	0	0	1	0	0
462.274226791032	2.51865641774981	punish_vlpfc	464.792883208781	89	4	15	10	0	0	0	0	250	250	250	750	2000	0	BLOCKED	0.25	-1	7	-1	n/a	n/a	n/a	2	6	215	VLPFC	1273.77191556245	0	2583.47191011236	0.0625	0	2302.28439661799	0.492307692307692	0	5	0	0	1	0	0
465.777012991458	2.51863138195876	punish_vlpfc	468.295644373417	90	4	15	10	0	0	0	0	250	250	250	750	2000	0	BLOCKED	0.25	-1	2	1	n/a	n/a	n/a	2	6	215	VLPFC	606.756275951862	0	2324.39076154806	-0.12625	0.270561106840892	1940.98524762908	1.13727560718057	1	6	0	0	1	0	0
469.296676482335	2.51860775665193	punish_vlpfc	471.815284238987	91	4	15	10	0	0	0	0	250	250	250	750	2000	0	BLOCKED	0.25	-1	8	-1	n/a	n/a	n/a	2	6	215	VLPFC	606.351472049952	0.555555555555556	2439.72752808989	1.34463276836158	0	2184.48501152959	0.484615384615385	1	7	0	0	1	0	0
472.799426363237	2.51867898520828	punish_vlpfc	475.318105348445	92	4	15	10	0	0	0	0	250	250	250	750	2000	0	BLOCKED	0.25	1	1	-1	n/a	n/a	n/a	2	6	215	VLPFC	1106.84249073267	0	2306.6404494382	0.1025	0.253651037663336	1796.47167868177	1.28792569659443	1	8	0	0	1	0	0
476.318881457686	6.02163444161414	panas_none	482.340515899301	93	5	16	n/a	n/a	n/a	n/a	n/a	n/a	n/a	n/a	n/a	n/a	n/a	n/a	n/a	n/a	n/a	n/a	afraid	At this moment	1	2	6	215	NONE	n/a	0	1201.75655430712	0.49375	0	1353.9146810146	-0.72	0	1	0	1	0	0	1
483.324811059184	6.02136186895524	panas_none	489.34617292814	94	5	16	n/a	n/a	n/a	n/a	n/a	n/a	n/a	n/a	n/a	n/a	n/a	n/a	n/a	n/a	n/a	n/a	distressed	At this moment	3	2	6	215	NONE	n/a	0	1364.8102372035	0.175	0	1281.73558800922	-0.182307692307692	0	2	0	1	0	0	1
490.33025687065	6.02163973086328	panas_none	496.351896601513	95	5	16	n/a	n/a	n/a	n/a	n/a	n/a	n/a	n/a	n/a	n/a	n/a	n/a	n/a	n/a	n/a	n/a	active	At this moment	3	2	6	215	NONE	n/a	0	1609.34831460674	-0.04	0	1927.24980784012	-0.392307692307692	0	3	0	1	0	0	1
497.338230943449	13.8423676656187	panas_none	511.180598609067	96	5	16	n/a	n/a	n/a	n/a	n/a	n/a	n/a	n/a	n/a	n/a	n/a	n/a	n/a	n/a	n/a	n/a	n/a	n/a	n/a	2	6	215	NONE	n/a	0	2214.68164794007	0.0275	0.296694850115296	1931.9781420765	0.836801752464403	1	4	0	1	0	0	1
