onset	duration	trial_type	offset	trial	block	blockCntr	frequency	amplitude_1	amplitude_2	amplitude_3	amplitude_4	amplitude_5	amplitude_6	amplitude_7	amplitude_8	transition	sham	mode	rewardFraction	guess	outcome	correct	word	when	answer	runNr	scanNr	subjectNr	target	reactionTime	outcomeEyeClosed	outcomeParms_1	outcomeParms_2	outcomeParms_3	outcomeSigma	outcomePupilArea	guessEyeClosed	guessParms_1	guessParms_2	guessParms_3	guessSigma	guessPupilArea	nrBlinks	trialInBlock	isReward	isPanas	isPunish	beforePanasReward	beforePanasVLPFC
20.4594369205907	2.54741547866911	reward_vlpfc	23.0068523992598	1	2	1	10	0	0	0	0	250	250	250	750	2000	0	BLOCKED	0.75	1	7	1	ashamed	At this moment	5	1	6	215	VLPFC	1036.45421395451	0	8391.25789226825	-5.84896939045215	0.00134574686575809	44.9172075201429	2114.76279650437	0	2387.77111051674	-0.702721520779259	0.000400836397512968	25.4466630715932	2135.82936202921	0	1	1	0	0	0	0
23.9973638379723	2.51227088291943	reward_vlpfc	26.5096347208917	2	2	1	10	0	0	0	0	250	250	250	750	2000	0	BLOCKED	0.75	1	2	-1	alert	At this moment	3	1	6	215	VLPFC	567.642979875207	0	1659.54189847188	0.457998975231511	-5.72002404664071e-05	19.4058864148301	2365.86891385768	0	1035.3751126219	0.654108404506356	8.07587096384568e-05	30.7000868086733	1661.70791698693	0	2	1	0	0	0	0
27.4937116110697	2.51892123284936	reward_vlpfc	30.0126328439191	3	2	1	10	0	0	0	0	250	250	250	750	2000	0	BLOCKED	0.75	-1	0	1	scared	At this moment	2	1	6	215	VLPFC	640.064444214106	0	15271.5091246843	-11.9895328049083	0.0027250117881139	36.2614963933409	2247.48189762796	0	1651.16186690422	0.537356255525043	4.58440011877899e-05	43.019951467518	2147.47271329746	0	3	1	0	0	0	0
31.0133289091736	2.51863808167726	reward_vlpfc	33.5319669908509	4	2	1	10	0	0	0	0	250	250	250	750	2000	0	BLOCKED	0.75	-1	4	1	determined	At this moment	3	1	6	215	VLPFC	591.256306104362	0	9428.75538735408	-6.73184197996492	0.00154572713200635	36.694059041155	2190.80274656679	0	1067.96787406441	0.941249076244736	-4.25949463527889e-05	27.7912771538562	1829.03151421983	0	4	1	0	0	0	0
34.5327959925905	2.51881227429211	reward_vlpfc	37.0516082668826	5	2	1	10	0	0	0	0	250	250	250	750	2000	0	BLOCKED	0.75	-1	1	1	inspired	At this moment	2	1	6	215	VLPFC	557.359973281622	0	13334.115053296	-10.1071465493758	0.00226888027340324	23.3394870509584	2212.28714107366	0	1416.59514902785	0.297763725018272	0.000216034408965916	33.8372795818497	1856.24827056111	0	5	1	0	0	0	0
38.0524866349548	2.5186260927096	reward_vlpfc	40.5711127276644	6	2	1	10	0	0	0	0	250	250	250	750	2000	0	BLOCKED	0.75	1	10	1	jittery	At this moment	4	1	6	215	VLPFC	906.562936253846	0	15380.271400952	-11.8583386377575	0.00263709997367219	25.8676283226251	2203.23970037453	0	1082.25875941642	1.11256462019405	-0.000174456541950013	30.5940020395842	1876.7717140661	0	6	1	0	0	0	0
41.5584615476876	2.51545606907457	reward_vlpfc	44.0739176167622	7	2	1	10	0	0	0	0	250	250	250	750	2000	0	BLOCKED	0.75	1	4	-1	upset	At this moment	1	1	6	215	VLPFC	736.884159430861	0	6070.81688947326	-3.78363300874078	0.000925625587682766	22.7713445345411	2255.22596754057	0	1375.67701781263	0.721415878996216	-0.000108014954329017	31.5493546153841	1896.05918524212	0	7	1	0	0	0	0
45.0748224310726	2.51858236824722	reward_vlpfc	47.5934047993198	8	2	1	10	0	0	0	0	250	250	250	750	2000	0	BLOCKED	0.75	-1	0	1	irritable	At this moment	5	1	6	215	VLPFC	1323.85053144395	0	8583.06011394715	-5.99596227876592	0.00139443885159367	28.1774296527092	2215.10736579276	0	1422.23463779512	0.863783922379156	-0.00018236305816467	40.287512851907	2000.09377401998	0	8	1	0	0	0	0
48.6160717024803	6.01684943374991	panas_none	54.6329211362302	9	5	2	10	n/a	n/a	n/a	n/a	n/a	n/a	n/a	n/a	2000	0	BLOCKED	n/a	n/a	+	0	strong	At this moment	3	1	6	215	NONE	n/a	0	1042.41878993258	-0.207568390054478	0.000115891809126853	9.76590133762108	1123.76779026217	0	1469.45863774775	0.106854460072449	-0.000179896258139054	105.824263380176	1407.4096848578	0	1	0	1	0	1	1
55.6165960434303	6.02148457954079	panas_none	61.6380806229711	10	5	2	10	n/a	n/a	n/a	n/a	n/a	n/a	n/a	n/a	2000	0	BLOCKED	n/a	n/a	+	0	attentive	At this moment	5	1	6	215	NONE	n/a	0	-1414.52458866049	3.24537223729739	-0.000734810758723405	21.3145996919433	2120.56179775281	0.142966948501153	2029.66603887229	-0.201439961228014	8.66342412489456e-05	29.6554653691015	1935.71210762332	1	2	0	1	0	1	1
62.6222661190778	6.0215547502637	panas_none	68.6438208693415	11	5	2	10	n/a	n/a	n/a	n/a	n/a	n/a	n/a	n/a	2000	0	BLOCKED	n/a	n/a	+	0	active	At this moment	5	1	6	215	NONE	n/a	0	-1040.13463503394	3.13329964537058	-0.000752527045346509	19.5417080106777	2182.16479400749	0	1855.52636409507	0.650003329797048	-0.000265627075460956	18.8176815693606	2178.01383551115	0	3	0	1	0	1	1
69.6484517837316	9.2203663616404	panas_none	78.868818145372	12	5	2	10	n/a	n/a	n/a	n/a	n/a	n/a	n/a	n/a	2000	0	BLOCKED	n/a	n/a	+	0	nervous	At this moment	1	1	6	215	NONE	n/a	0	1433.43133827607	1.2337796740904	-0.000295855425902665	37.386559132332	2704.25343320849	0	2317.94969694407	-0.031416061583044	0.000170241736012235	24.4349151471092	2437.48116833205	0	4	0	1	0	1	1
79.8696228165627	2.51870120006055	reward_rtpj	82.3883240166232	13	1	3	10	750	250	250	250	0	0	0	0	2000	0	BLOCKED	0.75	1	7	1	inspired	At this moment	1	1	6	215	RTPJ	439.943919844925	0	11962.8748381195	-9.02946545262237	0.00208855370111939	34.3024181600819	2315.04369538077	0	975.478976277974	1.05300573461019	-8.49246539943484e-05	25.8255077862656	1797.64411990776	0	1	1	0	0	0	0
83.3890941313654	2.51903759634494	reward_rtpj	85.9081317277104	14	1	3	10	750	250	250	250	0	0	0	0	2000	0	BLOCKED	0.75	1	10	1	scared	At this moment	4	1	6	215	RTPJ	373.106140077114	0	7548.96133967053	-4.76348956014958	0.00105743789180459	35.8489580785168	2264.10736579276	0	1321.34144109989	1.06616852752177	-0.000175042904701417	31.4567678610187	2076.69638739431	0	2	1	0	0	0	0
86.9087149556354	2.5186606491506	reward_rtpj	89.427375604786	15	1	3	10	750	250	250	250	0	0	0	0	2000	0	BLOCKED	0.75	1	7	1	hostile	At this moment	2	1	6	215	RTPJ	823.805925443769	0	12787.6549040029	-10.0316086597773	0.00231840947750894	36.1947457247465	2056.25842696629	0	923.234586843124	0.172367867170436	0.000396144901474241	34.9996212276289	1411.82244427364	0	3	1	0	0	0	0
90.4281855652183	2.51874950853735	reward_rtpj	92.9469350737557	16	1	3	10	750	250	250	250	0	0	0	0	2000	0	BLOCKED	0.75	-1	0	1	attentive	At this moment	4	1	6	215	RTPJ	206.255348756909	0	14388.9137488017	-10.9871746017118	0.0024714449514678	33.8480264637836	2334.79026217228	0	1644.53677475059	1.00110551949252	-0.000261489901117781	20.1903636538661	2269.59569561875	0	4	1	0	0	0	0
93.9476575852633	2.51877912833541	reward_rtpj	96.4664367135987	17	1	3	10	750	250	250	250	0	0	0	0	2000	0	BLOCKED	0.75	-1	3	1	interested	At this moment	4	1	6	215	RTPJ	623.478062488139	0	13434.7545763923	-10.1118196861711	0.00225567935011922	31.2212639660668	2244.27215980025	0	1298.73637462375	0.749037387350541	-7.34544656608536e-06	17.5787753543597	1929.28209069946	0	5	1	0	0	0	0
97.4672985086814	2.5186592386812	reward_rtpj	99.9859577473625	18	1	3	10	750	250	250	250	0	0	0	0	2000	0	BLOCKED	0.75	1	2	-1	guilty	At this moment	2	1	6	215	RTPJ	523.670273818076	0	4529.94406931812	-1.92257576615043	0.000450147784933364	23.5615745154618	2501.45193508115	0	1469.16780061553	0.719879541960225	-3.26181099759373e-05	31.5861127473059	2053.22751729439	0	6	1	0	0	0	0
100.986804379925	2.51875373993813	reward_rtpj	103.505558119863	19	1	3	10	750	250	250	250	0	0	0	0	2000	0	BLOCKED	0.75	-1	1	1	upset	At this moment	2	1	6	215	RTPJ	689.758355341852	0	11972.8925292744	-8.96095010377317	0.00200524984724955	27.5775776341751	2097.0911360799	0	1082.79943613811	1.44662594995637	-0.000432577547891743	27.9375488576334	1939.59338970023	0	7	1	0	0	0	0
104.506236906908	2.51871354164183	reward_rtpj	107.02495044855	20	1	3	10	750	250	250	250	0	0	0	0	2000	0	BLOCKED	0.75	-1	8	-1	irritable	At this moment	3	1	6	215	RTPJ	840.389838859439	0.138576779026217	4523.13884654454	-1.91666044256536	0.000388838053460491	49.6226553613545	2245.5231884058	0	1287.80370573731	1.0916216899679	-0.000306407625054746	29.2492153449462	1951.33743274404	1	8	1	0	0	0	0
108.026086226761	6.03797328647227	panas_none	114.064059513234	21	5	4	10	n/a	n/a	n/a	n/a	n/a	n/a	n/a	n/a	2000	0	BLOCKED	n/a	n/a	+	0	inspired	At this moment	3	1	6	215	NONE	n/a	0	2080.11769000226	-1.28609662394637	0.000443809761416127	21.3231576432187	1360.3670411985	0	2740.33762323771	-1.23082384741008	0.00016185120152221	52.775062656217	1834.58570330515	0	1	0	1	0	1	0
115.064810939305	6.0216189264804	panas_none	121.086429865785	22	5	4	10	n/a	n/a	n/a	n/a	n/a	n/a	n/a	n/a	2000	0	BLOCKED	n/a	n/a	+	0	proud	At this moment	3	1	6	215	NONE	n/a	0	3745.29773440449	-2.14187750474852	0.000609226800757791	28.0671649412675	1966.5493133583	0	2530.49609549143	-0.892571893235581	0.000323154653884224	22.6305525616045	2051.99154496541	0	2	0	1	0	1	0
122.08722960034	6.021627389282	panas_none	128.108856989622	23	5	4	10	n/a	n/a	n/a	n/a	n/a	n/a	n/a	n/a	2000	0	BLOCKED	n/a	n/a	+	0	guilty	At this moment	2	1	6	215	NONE	n/a	0	663.146381734358	0.74426036955929	-8.11618663416987e-05	17.1456532310033	1864.92384519351	0	1383.96814416594	0.7747408166324	-0.000363303532612596	18.5189504032279	1728.67409684858	0	3	0	1	0	1	0
129.109537539743	13.244172569178	panas_none	142.353710108921	24	5	4	10	n/a	n/a	n/a	n/a	n/a	n/a	n/a	n/a	2000	0	BLOCKED	n/a	n/a	+	0	ashamed	At this moment	2	1	6	215	NONE	n/a	0	2174.52814487078	-0.172815752368083	0.000128840386386877	19.1972019767485	2386.75405742821	0	1831.50321971029	-0.424565174765434	0.000477700573150848	48.3575148414017	1882.18524212145	0	4	0	1	0	1	0
143.355141379878	2.51808165261895	punish_rtpj	145.873223032497	25	3	5	10	750	250	250	250	0	0	0	0	2000	0	BLOCKED	0.25	1	3	-1	attentive	At this moment	5	1	6	215	RTPJ	655.735785759985	0	2153.56384132539	-0.000484132784085366	4.38127695623236e-05	32.866816850464	2347.84269662921	0	916.78702091664	0.448777985760744	0.000266308286907594	26.8157933764695	1527.98155265181	0	1	0	0	1	0	0
146.874047802828	2.5187163625732	punish_rtpj	149.392764165401	26	3	5	10	750	250	250	250	0	0	0	0	2000	0	BLOCKED	0.25	-1	6	-1	inspired	At this moment	1	1	6	215	RTPJ	673.243907406926	0	5393.7631662651	-2.60293390856745	0.000589940007904667	26.529724413424	2560.44319600499	0	1644.30930906157	0.910541411169315	-0.000184082869291751	17.7974227543266	2259.15680245965	0	2	0	0	1	0	0
150.393530753985	2.51878053881228	punish_rtpj	152.912311292797	27	3	5	10	750	250	250	250	0	0	0	0	2000	0	BLOCKED	0.25	1	10	1	upset	At this moment	4	1	6	215	RTPJ	623.236167475581	0	13765.9140528179	-10.1842875643539	0.00223827413774056	23.805697431118	2343.36079900125	0	1673.4992769853	0.875573446329868	-0.000164612919448756	26.609953807286	2274.38508839354	0	3	0	0	1	0	0
153.913284162119	2.51858413133772	punish_rtpj	156.431868293457	28	3	5	10	750	250	250	250	0	0	0	0	2000	0	BLOCKED	0.25	1	9	1	afraid	At this moment	1	1	6	215	RTPJ	622.923043884337	0	11391.8320396427	-8.23785466228854	0.00183813325696803	24.0564314342811	2285.79275905119	0	1273.65672232574	1.01641198079941	-0.00013176655628036	26.4538860451437	2031.24365872406	0	4	0	0	1	0	0
157.432666264921	2.51865289157627	punish_rtpj	159.951319156498	29	3	5	10	750	250	250	250	0	0	0	0	2000	0	BLOCKED	0.25	1	4	-1	hostile	At this moment	1	1	6	215	RTPJ	623.300696313381	0	5160.97737887929	-2.57172466624208	0.000574464957663767	23.2616388058527	2323.85892634207	0	1215.31818536181	0.744377649919034	7.37204642517145e-06	54.8419556049924	1854.60645657187	0	5	0	0	1	0	0
160.952111133486	2.55219167111815	punish_rtpj	163.504302804604	30	3	5	10	750	250	250	250	0	0	0	0	2000	0	BLOCKED	0.25	1	4	-1	inspired	At this moment	2	1	6	215	RTPJ	1503.59122421592	0	2930.37245027209	-0.624167133710851	0.000156990072669927	27.776506436353	2320.51435705368	0	1186.87825845357	0.875870170984086	-7.64840121137822e-05	28.5748050942048	1864.56110684089	0	6	0	0	1	0	0
164.50497771287	2.53543568078427	punish_rtpj	167.040413393654	31	3	5	10	750	250	250	250	0	0	0	0	2000	0	BLOCKED	0.25	-1	6	-1	enthusiastic	At this moment	3	1	6	215	RTPJ	640.370162852108	0.549313358302122	n/a	n/a	n/a	n/a	2265.4404432133	0	1206.60584638734	0.962174229920923	-0.000188343849931005	41.4300041877828	1863.52882398155	1	7	0	0	1	0	0
168.041309392549	2.51868674277515	punish_rtpj	170.559996135324	32	3	5	10	750	250	250	250	0	0	0	0	2000	0	BLOCKED	0.25	1	0	-1	strong	At this moment	5	1	6	215	RTPJ	741.189256049693	0	2388.68290960417	-0.399942145029919	0.000158524442741897	16.23792726128	2256.48064918851	0.230591852421214	1260.71776609103	0.689920970946578	-5.82803571767374e-05	26.9073442294245	1857.95004995005	1	8	0	0	1	0	0
171.560829015836	6.02162456835808	panas_none	177.582453584194	33	5	6	10	n/a	n/a	n/a	n/a	n/a	n/a	n/a	n/a	2000	0	BLOCKED	n/a	n/a	+	0	afraid	At this moment	1	1	6	215	NONE	n/a	0	-212.855356606178	0.84259815000732	-4.68952063313079e-05	13.4887015859476	1347.8127340824	0	1843.43770853223	-0.864357305758754	0.000344106372955931	105.9114251738	1408.67486548809	0	1	0	1	0	0	0
178.583194431767	6.0215614499748	panas_none	184.604755881742	34	5	6	10	n/a	n/a	n/a	n/a	n/a	n/a	n/a	n/a	2000	0	BLOCKED	n/a	n/a	+	0	alert	At this moment	5	1	6	215	NONE	n/a	0	6136.55929980735	-3.73514532991708	0.000846121117082427	26.5327527870492	2067.57677902622	0	1788.74041048847	-0.156958228232145	0.000241584373064609	28.5993518608324	1861.19523443505	0	2	0	1	0	0	0
185.605557026751	6.02164078871905	panas_none	191.62719781547	35	5	6	10	n/a	n/a	n/a	n/a	n/a	n/a	n/a	n/a	2000	0	BLOCKED	n/a	n/a	+	0	excited	At this moment	4	1	6	215	NONE	n/a	0	3851.43986517589	-1.9678164604617	0.000455176080638303	15.7960710359516	1750.48564294632	0	1477.38374864385	0.658022658698337	-0.000383274136369531	51.0760665768376	1705.10684089162	0	3	0	1	0	0	0
192.627918563895	7.08899409402161	panas_none	199.716912657917	36	5	6	10	n/a	n/a	n/a	n/a	n/a	n/a	n/a	n/a	2000	0	BLOCKED	n/a	n/a	+	0	attentive	At this moment	3	1	6	215	NONE	n/a	0	4570.95699557291	-2.37521054115165	0.000544679593279527	16.5184819678301	2014.09737827715	0.282090699461952	n/a	n/a	n/a	n/a	1631.78265524625	1	4	0	1	0	0	0
200.701226859093	2.51858624703436	punish_vlpfc	203.219813106127	37	4	7	10	0	0	0	0	250	250	250	750	2000	0	BLOCKED	0.25	1	7	1	irritable	At this moment	1	1	6	215	VLPFC	806.363743111491	0	14006.525676552	-10.7073171008888	0.0024011109832567	26.9728555423685	2207.58551810237	0	1022.56365719719	1.16108376689162	-0.000220831562748222	19.5283635029476	1819.35049961568	0	1	0	0	1	0	0
204.208741648719	2.51389715088902	punish_vlpfc	206.722638799608	38	4	7	10	0	0	0	0	250	250	250	750	2000	0	BLOCKED	0.25	1	3	-1	alert	At this moment	2	1	6	215	VLPFC	585.053779326379	0	4652.6114527844	-2.11766891689802	0.000505008997830101	30.201988490886	2459.06117353308	0	1521.52071914994	0.957391641207668	-0.000235042936007227	21.3974580057273	2131.86933128363	0	2	0	0	1	0	0
207.723609905854	2.5185985886082	punish_vlpfc	210.242208494462	39	4	7	10	0	0	0	0	250	250	250	750	2000	0	BLOCKED	0.25	-1	6	-1	distressed	At this moment	5	1	6	215	VLPFC	1423.87341625988	0	6557.64016387791	-3.96412675284496	0.000940605657715914	28.932363156628	2431.74406991261	0	1256.18429187354	1.1934117564936	-0.000269106528379205	17.4530055626612	2038.15065334358	0	3	0	0	1	0	0
211.22633298789	2.53543039153519	punish_vlpfc	213.761763379425	40	4	7	10	0	0	0	0	250	250	250	750	2000	0	BLOCKED	0.25	1	2	-1	enthusiastic	At this moment	1	1	6	215	VLPFC	610.631885498762	0	2038.10557976553	-0.1259603409946	6.46646215148854e-05	24.8085677313844	2062.00624219725	0	960.478246711541	0.0328513708189329	0.00037471649712228	52.4511305798636	1312.17909300538	0	4	0	0	1	0	0
214.762515510723	2.51871495211122	punish_vlpfc	217.281230462834	41	4	7	10	0	0	0	0	250	250	250	750	2000	0	BLOCKED	0.25	-1	6	-1	nervous	At this moment	3	1	6	215	VLPFC	390.871671877801	0	5452.09754190322	-3.07247606562272	0.000743282588616524	20.6476381742849	2317.17852684145	0	1683.48748307604	0.233114773467568	0.000134980825607086	27.8956131930501	1998.18908531899	0	5	0	0	1	0	0
218.282027729072	2.5187551504001	punish_vlpfc	220.800782879472	42	4	7	10	0	0	0	0	250	250	250	750	2000	0	BLOCKED	0.25	1	8	1	scared	At this moment	5	1	6	215	VLPFC	1174.23846264184	0	11350.454836299	-8.51797505871545	0.00187829652467455	25.3083472179891	1836.20349563046	0	903.06096814233	1.08841518789075	-0.000201378094464864	22.7277865406445	1657.4857801691	0	6	0	0	1	0	0
221.784804408841	2.5355072619617	punish_vlpfc	224.320311670803	43	4	7	10	0	0	0	0	250	250	250	750	2000	0	BLOCKED	0.25	-1	8	-1	alert	At this moment	1	1	6	215	VLPFC	1491.01338849962	0	5560.03231139788	-3.4864449308466	0.000854824188093759	22.5382375892623	2050.31210986267	0	858.471841878786	0.79818434599879	-5.84195334137499e-05	42.9664395936566	1487.37817063797	0	7	0	0	1	0	0
225.321139614679	2.51871671520175	punish_vlpfc	227.839856329881	44	4	7	10	0	0	0	0	250	250	250	750	2000	0	BLOCKED	0.25	1	1	-1	irritable	At this moment	1	1	6	215	VLPFC	640.058449745178	0	2740.83844818178	-0.664019387162965	0.000169511443283892	31.4609753433459	2101.36579275905	0	1079.38187631784	0.131106754960672	0.000312557133162687	34.4860645299389	1460.9139123751	0	8	0	0	1	0	0
228.840751976155	6.02143203966321	panas_none	234.862184015818	45	5	8	10	n/a	n/a	n/a	n/a	n/a	n/a	n/a	n/a	2000	0	BLOCKED	n/a	n/a	+	0	active	At this moment	5	1	6	215	NONE	n/a	0	-1525.10655148734	2.05855701558679	-0.00037714411844549	20.923091916576	1114.99375780275	0	1512.09855801642	-0.563528885250893	0.000184513288012306	82.0888297494733	1195.27824750192	0	1	0	1	0	0	1
235.863070846684	6.02150467868893	panas_none	241.884575525373	46	5	8	10	n/a	n/a	n/a	n/a	n/a	n/a	n/a	n/a	2000	0	BLOCKED	n/a	n/a	+	0	excited	At this moment	3	1	6	215	NONE	n/a	0	376.95922824772	0.442368734260823	2.01762474591639e-05	14.7986832408053	1396.02122347066	0	1450.62718296572	0.405570937326366	-0.000417580515878715	59.2147070412668	1434.88470407379	0	2	0	1	0	0	1
242.885313904628	6.0216287997514	panas_none	248.90694270438	47	5	8	10	n/a	n/a	n/a	n/a	n/a	n/a	n/a	n/a	2000	0	BLOCKED	n/a	n/a	+	0	upset	At this moment	2	1	6	215	NONE	n/a	0	1573.84915193986	-0.86851109293409	0.000297772187914288	17.5698872049501	1079.05493133583	0	1261.30887345696	0.393305977873526	-0.000468773970180267	23.4563871795603	1192.16064565719	0	3	0	1	0	0	1
249.907737149686	14.511862552844	panas_none	264.41959970253	48	5	8	10	n/a	n/a	n/a	n/a	n/a	n/a	n/a	n/a	2000	0	BLOCKED	n/a	n/a	+	0	interested	At this moment	2	1	6	215	NONE	n/a	0	1074.54574175581	0.621932160010288	-0.000129030261622399	18.2760867842767	1804.98751560549	0	904.235292867046	0.531452936211953	-7.88032400827345e-06	35.9266394135961	1349.85857033052	1	4	0	1	0	0	1
265.403553882122	2.51871530472488	reward_vlpfc	267.922269186847	49	2	9	10	0	0	0	0	250	250	250	750	2000	0	BLOCKED	0.75	-1	0	1	nervous	At this moment	2	1	6	215	VLPFC	356.328992731869	0	9058.39277360353	-6.60650845068847	0.00150498334333637	24.0423584862563	1894.50187265918	0	921.841900537611	0.588679423148251	6.36545658295228e-05	17.8668856845278	1477.02229054573	0	1	1	0	0	0	0
268.906492060304	2.51871072071049	reward_vlpfc	271.425202781014	50	2	9	10	0	0	0	0	250	250	250	750	2000	0	BLOCKED	0.75	1	4	-1	irritable	At this moment	4	1	6	215	VLPFC	356.179835900664	0	956.262026148737	1.05863986600512	-0.000221378641050138	18.8472453029381	2191.48564294632	0	1603.80213725669	0.585548575832238	-0.000119699468382524	57.2379665319412	1997.94465795542	0	2	1	0	0	0	0
272.409370998904	2.51871918350457	reward_vlpfc	274.928090182409	51	2	9	10	0	0	0	0	250	250	250	750	2000	0	BLOCKED	0.75	-1	0	1	enthusiastic	At this moment	3	1	6	215	VLPFC	507.499627105892	0	11316.9240503029	-8.56611772821692	0.00191586451245225	25.2975903531537	1871.86641697878	0	953.199321362943	0.745361219072759	9.52917876529397e-06	23.9041106726618	1594.04150653344	0	3	1	0	0	0	0
275.912109948695	2.51879887486996	reward_vlpfc	278.430908823565	52	2	9	10	0	0	0	0	250	250	250	750	2000	0	BLOCKED	0.75	-1	0	1	alert	At this moment	4	1	6	215	VLPFC	790.137030355632	0	4811.235528361	-3.25176208176959	0.000776074462199446	13.5395419337652	1438.96504369538	0	759.994747566442	0.561332989141103	-0.000118697310259668	33.8322844109391	1135.16141429669	0	4	1	0	0	0	0
279.431767797709	2.51865535990146	reward_vlpfc	281.95042315761	53	2	9	10	0	0	0	0	250	250	250	750	2000	0	BLOCKED	0.75	1	10	1	afraid	At this moment	1	1	6	215	VLPFC	1488.7023390159	0	9839.09941891224	-7.26014320646859	0.00160187845653788	19.3875010813735	1729.03370786517	0	1019.02460994907	0.860402170232995	-0.000212068810016745	18.9094621498869	1567.0760953113	0	5	1	0	0	0	0
282.951287773624	2.51864513400943	reward_vlpfc	285.469932907634	54	2	9	10	0	0	0	0	250	250	250	750	2000	0	BLOCKED	0.75	1	6	1	nervous	At this moment	4	1	6	215	VLPFC	1488.44210792333	0	12425.8636990806	-9.55617058632065	0.00213212288037969	26.9031450588821	1857.84269662921	0	1147.89004809688	0.832789899791155	-0.000146032664604301	21.7559921960768	1730.05995388163	0	6	1	0	0	0	0
286.454017907992	2.51893145872651	reward_vlpfc	288.972949366719	55	2	9	10	0	0	0	0	250	250	250	750	2000	0	BLOCKED	0.75	1	1	-1	guilty	At this moment	2	1	6	215	VLPFC	573.786267057061	0	2133.83048775803	-0.0388448872169732	8.26691202492277e-06	31.1482452085636	2088.85018726592	0	1304.85829803742	0.612781830096365	-9.2495897157479e-05	38.490939806607	1746.33820138355	0	7	1	0	0	0	0
289.956982179813	2.51865712298451	reward_vlpfc	292.475639302798	56	2	9	10	0	0	0	0	250	250	250	750	2000	0	BLOCKED	0.75	-1	1	1	strong	At this moment	5	1	6	215	VLPFC	543.659758791327	0	8708.6343701734	-6.04268164624057	0.0012802572371149	23.247396404215	1725.0861423221	0	893.834197567769	1.08009116558785	-0.000320053961192508	30.2249640998488	1536.45580322829	0	8	1	0	0	0	0
293.476488051057	6.02157097062468	panas_none	299.498059021682	57	5	10	10	n/a	n/a	n/a	n/a	n/a	n/a	n/a	n/a	2000	0	BLOCKED	n/a	n/a	+	0	irritable	At this moment	4	1	6	215	NONE	n/a	0	2005.63417156062	-1.41087208532648	0.000413476286645472	12.5973965245176	888.920099875156	0	1256.83842075794	0.113896654829135	-0.000198778930032813	69.7496001735902	1185.49884704074	1	1	0	1	0	1	1
300.498715593874	6.0216217474192	panas_none	306.520337341294	58	5	10	10	n/a	n/a	n/a	n/a	n/a	n/a	n/a	n/a	2000	0	BLOCKED	n/a	n/a	+	0	active	At this moment	4	1	6	215	NONE	n/a	0	-171.288799339683	1.45110167758206	-0.000284977364810741	16.6524589671902	1604.22347066167	0.391237509607994	n/a	n/a	n/a	n/a	1446.0101010101	2	2	0	1	0	1	1
307.521129670896	6.02180651853979	panas_none	313.542936189435	59	5	10	10	n/a	n/a	n/a	n/a	n/a	n/a	n/a	n/a	2000	0	BLOCKED	n/a	n/a	+	0	upset	At this moment	3	1	6	215	NONE	n/a	0	2275.01651243746	-1.25609606593047	0.000410314628195875	14.5514787843117	1468.93882646692	0	953.454841670257	0.12539951494151	4.61314554151616e-05	16.9633335836785	1100.12528823982	0	3	0	1	0	1	1
314.526961244963	13.4107835811824	panas_none	327.937744826145	60	5	10	10	n/a	n/a	n/a	n/a	n/a	n/a	n/a	n/a	2000	0	BLOCKED	n/a	n/a	+	0	attentive	At this moment	2	1	6	215	NONE	n/a	0	2297.95881152231	-0.466160237007261	0.000161536579866322	14.208767737455	2039.66167290886	0.296694850115296	n/a	n/a	n/a	n/a	1703.03387978142	1	4	0	1	0	1	1
328.921868966952	2.51871883089092	reward_rtpj	331.440587797843	61	1	11	10	750	250	250	250	0	0	0	0	2000	0	BLOCKED	0.75	1	6	1	guilty	At this moment	4	1	6	215	RTPJ	273.529315315187	0	9390.14624145722	-6.72653404823113	0.0014985930731507	22.6235470040677	1941.13233458177	0	895.292550467457	0.80229498535337	-5.75125875757226e-06	20.2443051809875	1571.94773251345	0	1	1	0	0	0	0
332.441326177098	2.51885705661778	reward_rtpj	334.960183233716	62	1	11	10	750	250	250	250	0	0	0	0	2000	0	BLOCKED	0.75	-1	4	1	alert	At this moment	2	1	6	215	RTPJ	740.334865920246	0	11110.238564047	-8.3318790382202	0.00186444399644063	31.1448419148335	1934.04119850187	0	1468.67971989157	0.964767998308842	-0.000312729195012514	15.6013614493831	2018.7332820907	0	2	1	0	0	0	0
335.944223804377	2.5187703129202	reward_rtpj	338.462994117297	63	1	11	10	750	250	250	250	0	0	0	0	2000	0	BLOCKED	0.75	-1	1	1	proud	At this moment	3	1	6	215	RTPJ	690.115203388035	0	8225.58019592859	-6.07565405444707	0.00143020453399318	33.3201946426602	1844.16604244694	0	730.646339347336	0.901354080891517	-0.000115304219520077	34.1681586870145	1398.23750960799	0	3	1	0	0	0	0
339.463784331203	2.51871671518683	reward_rtpj	341.982501046389	64	1	11	10	750	250	250	250	0	0	0	0	2000	0	BLOCKED	0.75	-1	7	-1	attentive	At this moment	2	1	6	215	RTPJ	639.959364451468	0	2448.49716115192	-0.64339015162668	0.000166602298384423	32.0380043874559	1841.06491885144	0	855.13068921919	0.522349541875743	7.61371594981357e-05	52.6250795174868	1363.91006917756	0	4	1	0	0	0	0
342.966675963998	2.51873187769951	reward_rtpj	345.485407841697	65	1	11	10	750	250	250	250	0	0	0	0	2000	0	BLOCKED	0.75	1	3	-1	determined	At this moment	3	1	6	215	RTPJ	907.743849389255	0	3769.05619169256	-1.69239979505583	0.000358207177421065	25.8388327894606	1814.16104868914	0	1104.16223426765	1.0879426173399	-0.000331188418093668	23.2181016910486	1742.10837817064	0	5	1	0	0	0	0
346.486145515725	2.51875761872532	reward_rtpj	349.00490313445	66	1	11	10	750	250	250	250	0	0	0	0	2000	0	BLOCKED	0.75	-1	3	1	jittery	At this moment	2	1	6	215	RTPJ	673.524942867458	0	10154.3709439785	-7.87296876789172	0.00178662784463392	18.1630547732673	1580.14606741573	0	691.0910993444	0.776769263943504	-4.48655351330544e-05	49.4040790639723	1313.29208301307	0	6	1	0	0	0	0
350.005740246356	2.51865430205316	reward_rtpj	352.524394548409	67	1	11	10	750	250	250	250	0	0	0	0	2000	0	BLOCKED	0.75	-1	4	1	afraid	At this moment	3	1	6	215	RTPJ	573.267920598388	0	11707.9696436259	-9.27116361946057	0.00210876892596474	24.3545946420471	1645.30461922597	0	1068.87372546487	0.397039401635933	0.000102290257799167	40.6825870092044	1494.52267486549	0	7	1	0	0	0	0
353.525277853101	2.51864936541767	reward_rtpj	356.043927218519	68	1	11	10	750	250	250	250	0	0	0	0	2000	0	BLOCKED	0.75	1	8	1	enthusiastic	At this moment	5	1	6	215	RTPJ	289.983113184571	0	9633.14752866874	-7.52678459277545	0.00170817204773536	27.1703410674776	1446.2709113608	0	666.712238736331	0.807523525361325	-7.50012983913275e-05	18.3056225951482	1290.4004611837	0	8	1	0	0	0	0
357.044715669334	6.02155862903595	panas_none	363.06627429837	69	5	12	10	n/a	n/a	n/a	n/a	n/a	n/a	n/a	n/a	2000	0	BLOCKED	n/a	n/a	+	0	attentive	At this moment	5	1	6	215	NONE	n/a	0.309612983770287	n/a	n/a	n/a	n/a	1201.7287522604	0.156802459646426	1429.01133992256	-1.15305771471718	0.000654278205501357	42.3724774344917	996.880583409298	3	1	0	1	0	1	0
364.050448863365	6.02154699268937	panas_none	370.071995856054	70	5	12	10	n/a	n/a	n/a	n/a	n/a	n/a	n/a	n/a	2000	0	BLOCKED	n/a	n/a	+	0	proud	At this moment	3	1	6	215	NONE	n/a	0	754.225200123429	0.823037137167986	-0.000155599188692057	13.7667971059192	1788.25842696629	0	1104.9724781949	0.578368412278737	-0.000120436778334232	28.5377005448261	1493.47425057648	0	2	0	1	0	1	0
371.056039600261	6.02167887131873	panas_none	377.077718471579	71	5	12	10	n/a	n/a	n/a	n/a	n/a	n/a	n/a	n/a	2000	0	BLOCKED	n/a	n/a	+	0	alert	At this moment	5	1	6	215	NONE	n/a	0	-396.471066412943	1.63519302803402	-0.000363593074796765	12.9519669583285	1414.31835205993	0	1450.46995761756	-0.649217095439548	0.000363093157520257	29.5458274584338	1212.03612605688	0	3	0	1	0	1	0
378.078491054647	5.35439489044245	panas_none	383.432885945089	72	5	12	10	n/a	n/a	n/a	n/a	n/a	n/a	n/a	n/a	2000	0	BLOCKED	n/a	n/a	+	0	hostile	At this moment	1	1	6	215	NONE	n/a	0	4812.74696995758	-3.02459706862636	0.000730539576409009	19.5014773760287	1721.58426966292	0.272098385857033	n/a	n/a	n/a	n/a	1288.22280887012	1	4	0	1	0	1	0
384.433700842157	2.51865218634157	punish_rtpj	386.952353028499	73	3	13	10	750	250	250	250	0	0	0	0	2000	0	BLOCKED	0.25	1	3	-1	excited	At this moment	2	1	6	215	RTPJ	589.509443253279	0	1979.96576813953	0.170390436290459	-6.06177887013221e-06	16.7063592144807	2310.60549313358	0.230591852421214	907.447699522157	1.27538914446593	-0.000266025958617756	33.3344093012275	1788.44155844156	1	1	0	0	1	0	0
387.936533235356	2.51900868177415	punish_rtpj	390.45554191713	74	3	13	10	750	250	250	250	0	0	0	0	2000	0	BLOCKED	0.25	-1	6	-1	interested	At this moment	2	1	6	215	RTPJ	222.731361478567	0	5048.82751041582	-2.18984206794444	0.000445199443475339	19.9182828409537	2437.13982521848	0	1852.50293889817	0.570225826606015	-6.02160026745308e-05	27.9101507646572	2285.70714834743	0	2	0	0	1	0	0
391.439357165754	2.53566664468497	punish_rtpj	393.975023810439	75	3	13	10	750	250	250	250	0	0	0	0	2000	0	BLOCKED	0.25	1	1	-1	determined	At this moment	1	1	6	215	RTPJ	1088.89712444693	0	4152.4297839653	-1.56749978614036	0.000330304571185222	20.180103735955	2334.93258426966	0	1234.00681656883	0.860424521364285	-7.62250093616379e-05	43.7390113369051	1901.714066103	0	3	0	0	1	0	0
394.975648999758	2.51862432962656	punish_rtpj	397.494273329385	76	3	13	10	750	250	250	250	0	0	0	0	2000	0	BLOCKED	0.25	-1	10	-1	alert	At this moment	5	1	6	215	RTPJ	606.54752690345	0.300873907615481	n/a	n/a	n/a	n/a	1962.2625	0	1059.25966222236	0.780720322776186	-9.56270677998659e-05	42.4323909106845	1640.39815526518	1	4	0	0	1	0	0
398.495063543282	2.51889937061071	punish_rtpj	401.013962913893	77	3	13	10	750	250	250	250	0	0	0	0	2000	0	BLOCKED	0.25	1	3	-1	active	At this moment	3	1	6	215	RTPJ	72.6919213086367	1	n/a	n/a	n/a	n/a	n/a	1	n/a	n/a	n/a	n/a	n/a	1	5	0	0	1	0	0
401.998032046504	2.51861128281803	punish_rtpj	404.516643329322	78	3	13	10	750	250	250	250	0	0	0	0	2000	0	BLOCKED	0.25	-1	3	1	irritable	At this moment	1	1	6	215	RTPJ	1091.20676346868	0	9567.74271820258	-6.98815036351944	0.00159884997030002	23.6740498246533	2021.95880149813	0	1095.60312638532	0.789788816911355	-8.59854197724798e-05	15.6262757711191	1692.75941583397	0	6	0	0	1	0	0
405.517877487585	2.51833201042564	punish_rtpj	408.036209498011	79	3	13	10	750	250	250	250	0	0	0	0	2000	0	BLOCKED	0.25	-1	0	1	nervous	At this moment	1	1	6	215	RTPJ	372.621292188764	0	8925.04423190205	-6.67968034068726	0.00156491102613382	31.8959412541194	1876.85393258427	0	1074.9612314104	0.198641655129362	0.000214889488811835	58.8447565573359	1429.52036894696	0	7	0	0	1	0	0
409.037006764248	2.51866805409639	punish_rtpj	411.555674818344	80	3	13	10	750	250	250	250	0	0	0	0	2000	0	BLOCKED	0.25	1	4	-1	determined	At this moment	5	1	6	215	RTPJ	607.463977567852	0.374531835205993	n/a	n/a	n/a	n/a	2130.93413173653	0	1185.19774857923	0.22717896707685	0.000281316650623979	42.1563485144056	1621.03920061491	1	8	0	0	1	0	0
412.556435765058	6.02158542791005	panas_none	418.578021192968	81	5	14	10	n/a	n/a	n/a	n/a	n/a	n/a	n/a	n/a	2000	0	BLOCKED	n/a	n/a	+	0	distressed	At this moment	3	1	6	215	NONE	n/a	0	-321.903236436177	0.885673704247318	-0.000105617797780669	13.6073196831325	1066.63420724095	0	1637.59489341628	-1.20260209865703	0.000532047724115583	75.0133234770786	1076.44888547271	1	1	0	1	0	0	0
419.562199636735	6.02164502011982	panas_none	425.583844656855	82	5	14	10	n/a	n/a	n/a	n/a	n/a	n/a	n/a	n/a	2000	0	BLOCKED	n/a	n/a	+	0	jittery	At this moment	2	1	6	215	NONE	n/a	0	-321.763890190434	2.01438618415277	-0.000504336686984244	19.4934794171786	1657.65293383271	0	1352.51820096493	0.772363930787552	-0.000371290038831223	42.6080864861474	1689.12605687932	0	2	0	1	0	0	0
426.56779319457	6.02164678320287	panas_none	432.589439977773	83	5	14	10	n/a	n/a	n/a	n/a	n/a	n/a	n/a	n/a	2000	0	BLOCKED	n/a	n/a	+	0	active	At this moment	4	1	6	215	NONE	n/a	0	1522.08554829441	-0.218258256810668	0.000111406809319099	14.1635471499315	1560.9163545568	0	1716.06426084116	-0.3994387450281	0.000200414820647691	16.420418221482	1548.81629515757	0	3	0	1	0	0	0
433.590280968472	6.6727012303844	panas_none	440.262982198857	84	5	14	10	n/a	n/a	n/a	n/a	n/a	n/a	n/a	n/a	2000	0	BLOCKED	n/a	n/a	+	0	afraid	At this moment	2	1	6	215	NONE	n/a	0	1087.96982047201	1.27729229858963	-0.000312508452665026	19.1732708913515	2375.97503121099	0	1204.28899292273	1.04112543282988	-0.000170628659833384	34.0278088354232	1949.90930053805	2	4	0	1	0	0	0
441.263147928677	2.51875902919471	punish_vlpfc	443.781906957872	85	4	15	10	0	0	0	0	250	250	250	750	2000	0	BLOCKED	0.25	1	2	-1	upset	At this moment	3	1	6	215	VLPFC	940.151082128286	0	234.055882754407	1.73785903207491	-0.000355678774512427	21.8191363280774	2296.05368289638	0	965.455706017687	0.692662972406754	1.72295618076666e-05	17.7185690349549	1568.97079169869	0	1	0	0	1	0	0
444.76605155044	2.51863667121535	punish_vlpfc	447.284688221656	86	4	15	10	0	0	0	0	250	250	250	750	2000	0	BLOCKED	0.25	1	4	-1	strong	At this moment	2	1	6	215	VLPFC	576.803607694805	0	4217.66510637888	-1.80876306785905	0.000464696144821533	16.1509097682892	2493.09488139825	0	1687.14425367124	0.693762972750728	-6.19382889434115e-05	18.9130484069312	2223.06994619523	0	2	0	0	1	0	0
448.285428716607	2.51873857742549	punish_vlpfc	450.804167294033	87	4	15	10	0	0	0	0	250	250	250	750	2000	0	BLOCKED	0.25	-1	8	-1	ashamed	At this moment	5	1	6	215	VLPFC	552.833786040545	0	7963.42070241947	-4.91232988477696	0.00105598052168562	36.9300644099482	2359.30961298377	0	1701.48652062723	0.71044426736465	-0.000145381730210795	21.2424517544133	2180.30899308224	0	3	0	0	1	0	0
451.78848819492	2.51865747560561	punish_vlpfc	454.307145670526	88	4	15	10	0	0	0	0	250	250	250	750	2000	0	BLOCKED	0.25	1	8	1	scared	At this moment	5	1	6	215	VLPFC	874.610226377845	0	11331.0909325027	-8.38031179532148	0.00186237459823036	27.2957774390408	2041.13233458177	0	1271.05156220842	0.997247309937552	-0.000148885129168665	21.1342296031693	1990.05303612606	0	4	0	0	1	0	0
455.307918253586	2.51872412014757	punish_vlpfc	457.826642373733	89	4	15	10	0	0	0	0	250	250	250	750	2000	0	BLOCKED	0.25	-1	6	-1	irritable	At this moment	3	1	6	215	VLPFC	439.684041388333	0	5155.07036674159	-2.81398831672943	0.000670758498245961	25.6924266988107	2238.71535580524	0	880.477457687092	1.28702266893007	-0.000290550932673297	21.6442137788441	1730.91006917756	0	5	0	0	1	0	0
458.810728079319	2.51876925507935	punish_vlpfc	461.329497334398	90	4	15	10	0	0	0	0	250	250	250	750	2000	0	BLOCKED	0.25	1	8	1	hostile	At this moment	4	1	6	215	VLPFC	706.754124999046	0	7550.34980569998	-5.31250500407783	0.00115403477664413	27.1959499936812	1544.78526841448	0	1293.37602204226	1.1300061849808	-0.000413003164835721	52.2269048962438	1896.24827056111	0	6	0	0	1	0	0
462.330407085344	2.51855697984996	punish_vlpfc	464.848964065194	91	4	15	10	0	0	0	0	250	250	250	750	2000	0	BLOCKED	0.25	1	4	-1	alert	At this moment	1	1	6	215	VLPFC	689.530212365091	0	8335.4164121119	-5.78523159634196	0.00124031879379362	37.6745297758858	1721.69038701623	0	947.532735226464	0.895153545355713	-0.000181621056270626	21.6321862101823	1551.86856264412	0	7	0	0	1	0	0
465.833125230752	2.51871847826988	punish_vlpfc	468.351843709022	92	4	15	10	0	0	0	0	250	250	250	750	2000	0	BLOCKED	0.25	-1	6	-1	scared	At this moment	2	1	6	215	VLPFC	473.710489742458	0	3552.63467104167	-2.45069695853537	0.000651525249089284	14.6705021935281	1314.98377028714	0	526.119604803837	0.214691041582063	0.00019968413955246	33.1022054193236	879.853958493467	0	8	0	0	1	0	0
469.352737592213	6.02160764275493	panas_none	475.374345234968	93	5	16	10	n/a	n/a	n/a	n/a	n/a	n/a	n/a	n/a	2000	0	BLOCKED	n/a	n/a	+	0	enthusiastic	At this moment	3	1	6	215	NONE	n/a	0	159.719232267164	0.441250493683946	-1.18524604321356e-05	11.3291639470966	1033.7315855181	0.229823212913144	360.636083455029	1.15565259457892	-0.000516577416508099	41.3017499034692	957.904191616766	1	1	0	1	0	0	1
476.374992639124	6.02155333979425	panas_none	482.396545978919	94	5	16	10	n/a	n/a	n/a	n/a	n/a	n/a	n/a	n/a	2000	0	BLOCKED	n/a	n/a	+	0	upset	At this moment	3	1	6	215	NONE	n/a	0	1421.57694132143	0.211880304533317	-7.38263677343708e-05	16.7201730068447	1536.9138576779	0	1440.702697397	0.0321518237818882	2.36770224214793e-05	15.3782608232054	1489.10222905457	4	2	0	1	0	0	1
483.380629568815	6.05494472557308	panas_none	489.435574294388	95	5	16	10	n/a	n/a	n/a	n/a	n/a	n/a	n/a	n/a	2000	0	BLOCKED	n/a	n/a	+	0	proud	At this moment	3	1	6	215	NONE	n/a	0	1756.49581827278	-0.429298738792697	0.000183170331792994	18.5743194336008	1672.28963795256	0	1477.07415853647	0.339731988728001	-0.000214441896466978	17.0811403959035	1581.09454265949	0	3	0	1	0	0	1
490.419755911708	7.10575220006706	panas_none	497.525508111775	96	5	16	10	n/a	n/a	n/a	n/a	n/a	n/a	n/a	n/a	2000	0	BLOCKED	n/a	n/a	+	0	alert	At this moment	2	1	6	215	NONE	n/a	0	1671.46371980885	0.175583038706803	1.05518862361592e-05	18.1246645681282	2087.15980024969	0	1790.85302414996	0.0155721976157164	0.000103293378972397	19.5657908834025	1892.88624135281	0	4	0	1	0	0	1
