onset	duration	trial_type	offset	trial	block	blockCntr	frequency	amplitude_1	amplitude_2	amplitude_3	amplitude_4	amplitude_5	amplitude_6	amplitude_7	amplitude_8	transition	sham	mode	rewardFraction	guess	outcome	correct	word	when	answer	runNr	scanNr	subjectNr	target	reactionTime	outcomeEyeClosed	outcomeParms_1	outcomeParms_2	outcomeParms_3	outcomeSigma	outcomePupilArea	guessEyeClosed	guessParms_1	guessParms_2	guessParms_3	guessSigma	guessPupilArea	nrBlinks	trialInBlock	isReward	isPanas	isPunish	beforePanasReward	beforePanasVLPFC
20.2732461641431	2.51456606467068	reward_rtpj	22.7878122288138	1	1	1	10	750	250	250	250	0	0	0	0	2000	0	BLOCKED	0.75	1	10	1	strong	At this moment	4	3	12	215	RTPJ	670.187073715031	0	11413.4701277237	-9.21747735376455	0.00214306582456072	35.6074596494781	1621.43570536829	0	1214.74863034042	-0.00781481371749402	0.000244568078843833	31.4958276292076	1421.76018447348	0	1	1	0	0	0	0
23.7931797593758	2.51420745354146	reward_rtpj	26.3073872129172	2	1	1	10	750	250	250	250	0	0	0	0	2000	0	BLOCKED	0.75	1	9	1	scared	At this moment	1	3	12	215	RTPJ	571.216044336557	0.414481897627965	n/a	n/a	n/a	n/a	1809.2473347548	0	976.264673624508	1.02272749059006	-0.000297676790044061	25.5147935600734	1588.76249039201	1	2	1	0	0	0	0
27.293399615854	2.51679072307795	reward_rtpj	29.810190338932	3	1	1	10	750	250	250	250	0	0	0	0	2000	0	BLOCKED	0.75	1	7	1	attentive	At this moment	3	3	12	215	RTPJ	588.483681440353	0	8824.72955281839	-6.11501052218294	0.0013605979378563	32.4227859128822	2049.83770287141	0	1381.88665583613	0.820732618579711	-0.0002466454997804	25.9405712283918	1867.06764027671	0	3	1	0	0	0	0
30.7942524192184	2.51882003186643	reward_rtpj	33.3130724510848	4	1	1	10	750	250	250	250	0	0	0	0	2000	0	BLOCKED	0.75	-1	1	1	excited	At this moment	5	3	12	215	RTPJ	40.9151671379805	0	11229.5617737057	-8.10630440533635	0.00182626901822171	37.4416406841117	2349.99001248439	0	1301.74373106845	1.09660786352412	-0.000215189896987504	17.4234168611444	2056.75326671791	0	4	1	0	0	0	0
34.3139092103839	2.51875268209726	reward_rtpj	36.8326618924811	5	1	1	10	750	250	250	250	0	0	0	0	2000	0	BLOCKED	0.75	-1	4	1	jittery	At this moment	4	3	12	215	RTPJ	690.047148369253	0	14402.9717152002	-11.5227767047402	0.00264556609363421	30.6778050346024	2002.73782771536	0	1321.77794531677	1.07058675180104	-0.000281905620467273	24.4430971525972	1990.05303612606	0	5	1	0	0	0	0
37.8167497137636	2.51870895761997	reward_rtpj	40.3354586713836	6	1	1	10	750	250	250	250	0	0	0	0	2000	0	BLOCKED	0.75	-1	9	-1	upset	At this moment	4	3	12	215	RTPJ	673.822198703885	0.385767790262172	n/a	n/a	n/a	n/a	2186.08536585366	0	1188.92933644248	0.615517222158562	-7.89372893579137e-06	26.1765377150854	1704.84166026134	1	6	1	0	0	0	0
41.3213585896194	2.51683797371387	reward_rtpj	43.8381965633333	7	1	1	10	750	250	250	250	0	0	0	0	2000	0	BLOCKED	0.75	1	2	-1	active	At this moment	5	3	12	215	RTPJ	598.41054520756	0	3906.58055938619	-1.46771937821012	0.00035790754458901	20.8000790573551	2421.50686641698	0	1494.77211327643	0.373235593786258	0.000154649328773339	36.9971633282911	1946.46810146042	0	7	1	0	0	0	0
44.8437721377164	2.51412423601001	reward_rtpj	47.3578963737264	8	1	1	10	750	250	250	250	0	0	0	0	2000	0	BLOCKED	0.75	1	8	1	scared	At this moment	4	3	12	215	RTPJ	618.442696794868	0	8993.2463723476	-6.48296387703813	0.00151844573178541	26.3002912883535	2154.89762796504	0	1562.69357140601	0.138703748641595	0.000231747130023431	39.7621640685564	1879.71944657955	0	8	1	0	0	0	0
48.3585106319264	6.00502972381562	panas_none	54.363540355742	9	5	2	10	n/a	n/a	n/a	n/a	n/a	n/a	n/a	n/a	2000	0	BLOCKED	n/a	n/a	+	0	nervous	At this moment	1	3	12	215	NONE	n/a	0	-281.375818824908	0.978751533566685	-0.000134586056216777	14.1885285960295	1173.76029962547	0	1939.16215565338	-1.64579822092069	0.000739803899551187	72.9614469584239	1181.98385857033	1	1	0	1	0	1	0
55.3642670986429	6.00495920049399	panas_none	61.3692262991369	10	5	2	10	n/a	n/a	n/a	n/a	n/a	n/a	n/a	n/a	2000	0	BLOCKED	n/a	n/a	+	0	distressed	At this moment	2	3	12	215	NONE	n/a	0	658.552133758836	-0.19698387990514	0.000197416268068536	9.35491706102373	1126.03245942572	0	1644.84654125731	-0.307029082360499	-0.000189111025047091	21.9490965894619	1221.77248270561	0	2	0	1	0	1	0
62.3699911246374	6.02156391828507	panas_none	68.3915550429225	11	5	2	10	n/a	n/a	n/a	n/a	n/a	n/a	n/a	n/a	2000	0	BLOCKED	n/a	n/a	+	0	hostile	At this moment	1	3	12	215	NONE	n/a	0	-94.7052441262064	0.945902006150016	-0.000145117549546466	13.7581532763959	1244.15605493134	0	1607.30628533194	-1.20363865383428	0.000617488526505214	18.8693757787477	1116.90238278248	0	3	0	1	0	1	0
69.3969779343009	12.6723450875729	panas_none	82.0693230218738	12	5	2	10	n/a	n/a	n/a	n/a	n/a	n/a	n/a	n/a	2000	0	BLOCKED	n/a	n/a	+	0	ashamed	At this moment	2	3	12	215	NONE	n/a	0.374531835205993	n/a	n/a	n/a	n/a	1888.76447105788	0.230591852421214	1420.81031076815	-0.176530553600479	0.000304922851273498	34.1421903397762	1533.52447552448	2	4	0	1	0	1	0
83.0701467343643	2.51872694107891	reward_rtpj	85.5888736754432	13	1	3	10	750	250	250	250	0	0	0	0	2000	0	BLOCKED	0.75	1	0	-1	upset	At this moment	4	3	12	215	RTPJ	673.863102227449	0	4514.02184830224	-2.28597102404296	0.000587776475459401	21.6144201629963	2337.25967540574	0	870.370572214	1.04174688532803	-0.000124139245295125	26.7246756020861	1650.99846272098	0	1	1	0	0	0	0
86.5775000255704	2.53095956508815	reward_rtpj	89.1084595906585	14	1	3	10	750	250	250	250	0	0	0	0	2000	0	BLOCKED	0.75	-1	3	1	strong	At this moment	5	3	12	215	RTPJ	602.595752164721	0	6763.45009875067	-4.22371392436313	0.000952173550329378	31.4763946048283	2143.74656679151	0.255956956187548	n/a	n/a	n/a	n/a	2050.29752066116	1	2	1	0	0	0	0
90.0924835883379	2.51872835154086	reward_rtpj	92.6112119398788	15	1	3	10	750	250	250	250	0	0	0	0	2000	0	BLOCKED	0.75	-1	1	1	active	At this moment	4	3	12	215	RTPJ	723.257641814649	0	8961.85837596343	-6.10814363673877	0.00135643755311107	35.2502914370213	2184.64794007491	0	1322.49394530718	1.1165740131089	-0.000317340825526885	29.4123933277988	1999.93543428132	0	3	1	0	0	0	0
93.5984539170638	2.51559500002861	reward_rtpj	96.1140489170924	16	1	3	10	750	250	250	250	0	0	0	0	2000	0	BLOCKED	0.75	1	7	1	guilty	At this moment	2	3	12	215	RTPJ	603.277360133827	0	11431.4832522077	-8.46829030014808	0.00191469944359857	32.1061623337414	2188.24719101124	0	1505.39409810217	0.985320476586472	-0.000321254752210657	32.6318178482648	2066.08147578786	0	4	1	0	0	0	0
97.0981949201375	2.51868039567768	reward_rtpj	99.6168753158152	17	1	3	10	750	250	250	250	0	0	0	0	2000	0	BLOCKED	0.75	-1	2	1	proud	At this moment	4	3	12	215	RTPJ	567.586913824081	0	10306.6543798304	-7.40816727964003	0.00166958617766907	35.1328595314112	2199.19600499376	0	1373.54249951293	1.16263964831219	-0.000333034013293661	21.134162902767	2075.84089162183	0	5	1	0	0	0	0
100.601126045994	2.51860387786478	reward_rtpj	103.119729923859	18	1	3	10	750	250	250	250	0	0	0	0	2000	0	BLOCKED	0.75	1	10	1	inspired	At this moment	2	3	12	215	RTPJ	609.789131715894	0	14033.7115971595	-11.0814564065271	0.00251193561905152	19.9579199128832	1943.78651685393	0	1300.37881521861	0.857645592973694	-0.000189139398334054	34.5461113358399	1864.31591083782	0	6	1	0	0	0	0
104.103920709215	2.51869802650809	reward_rtpj	106.622618735723	19	1	3	10	750	250	250	250	0	0	0	0	2000	0	BLOCKED	0.75	-1	0	1	interested	At this moment	4	3	12	215	RTPJ	706.795028522611	0	11969.6642029074	-9.23637157695359	0.00209078685138322	44.89514186391	1904.90761548065	0	1146.55233257641	0.999265279632084	-0.000242911513183014	28.2193746166517	1787.13989239047	0	7	1	0	0	0	0
107.623403660372	2.51883237344771	reward_rtpj	110.14223603382	20	1	3	10	750	250	250	250	0	0	0	0	2000	0	BLOCKED	0.75	1	3	-1	nervous	At this moment	4	3	12	215	RTPJ	873.315065443516	0.143570536828964	4513.53444416968	-2.0924408872343	0.000484400032188885	28.4648013106122	2278.78717201166	0	1161.00375720669	0.896218274800637	-0.000120779320014101	13.4972921188988	1818.43197540354	1	8	1	0	0	0	0
111.142990986064	6.00481039626152	panas_none	117.147801382326	21	5	4	10	n/a	n/a	n/a	n/a	n/a	n/a	n/a	n/a	2000	0	BLOCKED	n/a	n/a	+	0	proud	At this moment	3	3	12	215	NONE	n/a	0	405.8479988973	0.515487382282237	-4.4530419820964e-05	12.5203548995177	1289.65293383271	0	2158.55661536083	-0.363324066331292	-0.000147645227885098	84.4575264093264	1722.66948501153	1	1	0	1	0	1	0
118.131942801356	6.00478677094728	panas_none	124.136729572304	22	5	4	10	n/a	n/a	n/a	n/a	n/a	n/a	n/a	n/a	2000	0	BLOCKED	n/a	n/a	+	0	enthusiastic	At this moment	1	3	12	215	NONE	n/a	0	852.91270152895	-0.103952571449558	0.000129935474249693	9.5588234801847	1214.61922596754	0	1060.31221543441	-0.274849406132268	0.000204047592706109	40.096466426336	1003.95311299001	0	2	0	1	0	1	0
125.137624160722	6.00492006004602	panas_none	131.142544220768	23	5	4	10	n/a	n/a	n/a	n/a	n/a	n/a	n/a	n/a	2000	0	BLOCKED	n/a	n/a	+	0	alert	At this moment	4	3	12	215	NONE	n/a	0	1396.34068112784	-0.211862964229866	4.08814453251419e-05	22.2883839972126	1134.25218476904	0	1124.83038282938	0.474623309530568	-0.00024808307499365	51.1116316297052	1314.37970791699	1	3	0	1	0	1	0
132.143277663387	5.18762449571491	panas_none	137.330902159102	24	5	4	10	n/a	n/a	n/a	n/a	n/a	n/a	n/a	n/a	2000	0	BLOCKED	n/a	n/a	+	0	afraid	At this moment	5	3	12	215	NONE	n/a	0	4572.31227278933	-2.71338263327057	0.000570420013396567	17.6043976844394	1419.83770287141	0.282090699461952	n/a	n/a	n/a	n/a	1372.19700214133	1	4	0	1	0	1	0
138.331739623636	2.51876043964924	reward_vlpfc	140.850500063285	25	2	5	10	0	0	0	0	250	250	250	750	2000	0	BLOCKED	0.75	-1	0	1	hostile	At this moment	1	3	12	215	VLPFC	724.401882842183	0	10533.3102814103	-8.17006053680138	0.00189043864183296	38.2228152631163	1812.90511860175	0	857.730883242198	1.03666962669948	-0.000239401677030753	14.9755891902124	1532.15757109915	0	1	1	0	0	0	0
141.83458471103	2.51865677037091	reward_vlpfc	144.353241481401	26	2	5	10	0	0	0	0	250	250	250	750	2000	0	BLOCKED	0.75	-1	2	1	proud	At this moment	2	3	12	215	VLPFC	756.682526193559	0	12688.3505300103	-9.84850157018515	0.00224388445949204	29.2426876817873	2011.13982521848	0	1332.05581395251	0.440249139623182	7.81488742945682e-05	51.6478472547289	1774.59338970023	0	2	1	0	0	0	0
145.358624527104	2.51440033483505	reward_vlpfc	147.873024861939	27	2	5	10	0	0	0	0	250	250	250	750	2000	0	BLOCKED	0.75	1	6	1	determined	At this moment	3	3	12	215	VLPFC	686.737488530576	0	13440.1720026868	-10.4285772325534	0.00238505430603231	28.2003500411402	2174.39825218477	0	1570.94942827471	0.810293127206802	-0.00020095600931099	13.4596374943616	2086.1614142967	0	3	1	0	0	0	0
148.873747020833	2.51855803769826	reward_vlpfc	151.392305058531	28	2	5	10	0	0	0	0	250	250	250	750	2000	0	BLOCKED	0.75	-1	1	1	distressed	At this moment	1	3	12	215	VLPFC	673.163158193231	0	9821.68128879893	-7.16657348808207	0.0016662231627191	28.7439816558162	2204.6379525593	0	1479.14157997603	0.965602038260595	-0.000304436214270948	21.0675231748319	2041.5242121445	0	4	1	0	0	0	0
152.376461287454	2.51868568493427	reward_vlpfc	154.895146972388	29	2	5	10	0	0	0	0	250	250	250	750	2000	0	BLOCKED	0.75	1	7	1	alert	At this moment	1	3	12	215	VLPFC	740.122590705752	0	8682.69593367011	-6.83996096881991	0.00164096957957646	21.7033730984242	1643.00873907615	0.230591852421214	976.030049536986	1.2491937430916	-0.000406775444639128	25.3315379698568	1735.00999000999	1	5	1	0	0	0	0
155.879221746862	2.51872306228429	reward_vlpfc	158.397944809146	30	2	5	10	0	0	0	0	250	250	250	750	2000	0	BLOCKED	0.75	-1	4	1	strong	At this moment	5	3	12	215	VLPFC	640.106405593455	0	9032.5752663967	-6.53429295948341	0.00150248739356274	32.6703720140065	2012.23345817728	0	1126.71118927568	0.755424032460645	-9.74451323678036e-05	25.5100878911318	1685.04150653344	0	6	1	0	0	0	0
159.39882035628	2.51885423567893	reward_vlpfc	161.917674591959	31	2	5	10	0	0	0	0	250	250	250	750	2000	0	BLOCKED	0.75	1	4	-1	ashamed	At this moment	3	3	12	215	VLPFC	1106.66441931576	0.0998751560549313	3498.10305117989	-1.25568619977869	0.000314189999822638	15.1528890481844	2257.92649098474	0	1073.72821482329	1.0119365850819	-0.000145663371585442	28.0986473091931	1807.65411222137	1	7	1	0	0	0	0
162.918393577307	2.51861798252165	reward_vlpfc	165.437011559829	32	2	5	10	0	0	0	0	250	250	250	750	2000	0	BLOCKED	0.75	1	1	-1	distressed	At this moment	5	3	12	215	VLPFC	1390.74402463436	0	2469.03530794162	-0.433409550671688	0.000145266115268411	22.3127281953317	2206.32334581773	0	1179.83329017471	0.385194537282932	0.000113396489679805	35.4736714980447	1606.31744811683	0	8	1	0	0	0	0
166.454730193615	6.00469085921347	panas_none	172.459421052828	33	5	6	10	n/a	n/a	n/a	n/a	n/a	n/a	n/a	n/a	2000	0	BLOCKED	n/a	n/a	+	0	proud	At this moment	3	3	12	215	NONE	n/a	0	598.914844236998	0.0922714879881407	9.38473075637272e-05	10.628923170294	1211.59300873908	0	1688.2366110979	-0.861069859145476	0.000361212674892336	96.2169680461471	1271.8001537279	0	1	0	1	0	1	1
173.443567761108	6.02153394588083	panas_none	179.465101706989	34	5	6	10	n/a	n/a	n/a	n/a	n/a	n/a	n/a	n/a	2000	0	BLOCKED	n/a	n/a	+	0	attentive	At this moment	5	3	12	215	NONE	n/a	0	-1256.07015415207	2.58378105267859	-0.00053746523241712	13.9538031986226	1770.93008739076	0	1545.39184586423	-0.12678418823993	7.27014186954212e-05	28.6840925974618	1499.99308224443	0	2	0	1	0	1	1
180.466035788476	6.00476984535157	panas_none	186.470805633828	35	5	6	10	n/a	n/a	n/a	n/a	n/a	n/a	n/a	n/a	2000	0	BLOCKED	n/a	n/a	+	0	nervous	At this moment	1	3	12	215	NONE	n/a	0	451.790778547713	0.490369646645094	-2.8725521105451e-05	14.5085075698858	1352.94881398252	0.194465795541891	1426.70055609819	0.0676088664670871	-0.000124921471192632	31.1851243382739	1353.73282442748	1	3	0	1	0	1	1
187.454916727819	9.90813349077851	panas_none	197.363050218597	36	5	6	10	n/a	n/a	n/a	n/a	n/a	n/a	n/a	n/a	2000	0	BLOCKED	n/a	n/a	+	0	hostile	At this moment	2	3	12	215	NONE	n/a	0	1374.41273451788	0.317677793124722	-6.59208003920573e-05	21.6037496288159	1747.44943820225	0.305149884704074	n/a	n/a	n/a	n/a	1366.98561946903	1	4	0	1	0	1	1
198.363765677772	2.5354176973328	punish_rtpj	200.899183375105	37	3	7	10	750	250	250	250	0	0	0	0	2000	0	BLOCKED	0.25	-1	10	-1	interested	At this moment	4	3	12	215	RTPJ	590.676251724362	0	3791.3491191672	-1.43399644073744	0.000356022971839568	18.8881967830965	2369.01248439451	0	958.035458580622	1.06240480027404	-0.000101006853946298	23.259118564323	1775.56495003843	0	1	0	0	1	0	0
201.899898481674	2.51878512281181	punish_rtpj	204.418683604486	38	3	7	10	750	250	250	250	0	0	0	0	2000	0	BLOCKED	0.25	1	7	1	jittery	At this moment	3	3	12	215	RTPJ	1082.91357259452	0	11802.8283272945	-8.91773648360318	0.00204196471973918	34.3960899435921	2186.84144818976	0	1389.52257188762	1.04917354044744	-0.000276827741639053	14.3880311497	2044.13143735588	0	2	0	0	1	0	0
205.402917056449	2.51873081986605	punish_rtpj	207.921647876315	39	3	7	10	750	250	250	250	0	0	0	0	2000	0	BLOCKED	0.25	-1	8	-1	ashamed	At this moment	2	3	12	215	RTPJ	624.569763615727	0.250936329588015	n/a	n/a	n/a	n/a	2262.44666666667	0	710.129404740007	1.30141504736552	-0.000232916009583913	19.6960752455404	1643.42044581091	1	3	0	0	1	0	0
208.922365098566	2.51869837912173	punish_rtpj	211.441063477688	40	3	7	10	750	250	250	250	0	0	0	0	2000	0	BLOCKED	0.25	-1	8	-1	excited	At this moment	3	3	12	215	RTPJ	540.286980584264	0	6657.84693277347	-4.01006679280404	0.000917887195274047	26.6537496601535	2333.20848938826	0	1562.62081198745	0.549005085694551	-5.11367368417379e-06	14.9086672788284	2024.65180630284	0	4	0	0	1	0	0
212.425126263201	2.51871248380095	punish_rtpj	214.943838747002	41	3	7	10	750	250	250	250	0	0	0	0	2000	0	BLOCKED	0.25	-1	9	-1	enthusiastic	At this moment	5	3	12	215	RTPJ	1408.10122636706	0	5378.90436639086	-2.91814300143624	0.000663440189992682	25.1522126113547	2210.65293383271	0	1452.96230715267	0.599545238819663	-4.73748647427326e-05	23.7856837000628	1922.30745580323	0	5	0	0	1	0	0
215.934271199569	2.52917955628038	punish_rtpj	218.463450755849	42	3	7	10	750	250	250	250	0	0	0	0	2000	0	BLOCKED	0.25	1	1	-1	alert	At this moment	5	3	12	215	RTPJ	642.451658904552	0.205992509363296	1037.59126043135	1.45808835951147	-0.000373756634221288	27.5730074776153	2445.54716981132	0	1330.33963317745	0.802442226519767	-0.000111606566418107	17.842618808101	1915.73866256726	1	6	0	0	1	0	0
219.464217697054	2.51879922748356	punish_rtpj	221.983016924538	43	3	7	10	750	250	250	250	0	0	0	0	2000	0	BLOCKED	0.25	-1	9	-1	inspired	At this moment	2	3	12	215	RTPJ	1040.06818196177	0	5150.6946551092	-2.86597662080141	0.000730871582599722	26.8287562190246	2394.86516853933	0	1664.18508573479	0.423293946564623	2.14668074282887e-05	19.0951431398554	2042.13220599539	0	7	0	0	1	0	0
222.983882951014	2.51858695226906	punish_rtpj	225.502469903283	44	3	7	10	750	250	250	250	0	0	0	0	2000	0	BLOCKED	0.25	1	8	1	excited	At this moment	3	3	12	215	RTPJ	857.342941902578	0	10355.1676021962	-8.05788571796691	0.00191229016085422	31.8541623694648	1968.17103620474	0.230591852421214	1049.30239903971	0.798499841991119	-1.15554541951649e-05	36.1528756813132	1722.000999001	1	8	0	0	1	0	0
226.503241075888	6.00490877632052	panas_none	232.508149852209	45	5	8	10	n/a	n/a	n/a	n/a	n/a	n/a	n/a	n/a	2000	0	BLOCKED	n/a	n/a	+	0	active	At this moment	4	3	12	215	NONE	n/a	0	2141.98458178778	-1.27302182493165	0.000394027430438406	11.3903055690958	1227.55680399501	0	1773.09626375147	-0.601977397262061	0.000143668910078077	70.8189551967698	1388.22136817832	1	1	0	1	0	0	0
233.509031746425	6.00488832454383	panas_none	239.513920070969	46	5	8	10	n/a	n/a	n/a	n/a	n/a	n/a	n/a	n/a	2000	0	BLOCKED	n/a	n/a	+	0	guilty	At this moment	1	3	12	215	NONE	n/a	0.192259675405743	2098.96640220308	-1.24726967798073	0.00042491048852105	14.4860046486934	1329.42040185471	0	1601.80132392995	-0.908273507697267	0.000340235511397238	14.2730397053529	1123.7717140661	1	2	0	1	0	0	0
240.497992729753	6.00492147050798	panas_none	246.502914200261	47	5	8	10	n/a	n/a	n/a	n/a	n/a	n/a	n/a	n/a	2000	0	BLOCKED	n/a	n/a	+	0	jittery	At this moment	2	3	12	215	NONE	n/a	0	328.965935868079	0.527053305309724	-2.40709569617396e-05	12.1349592301366	1328.55930087391	0	1513.23790859714	-0.603410108430089	0.000207394743000468	25.7751299060969	1173.2567255957	0	3	0	1	0	0	0
247.491735900015	8.06851482452453	panas_none	255.560250724539	48	5	8	10	n/a	n/a	n/a	n/a	n/a	n/a	n/a	n/a	2000	0	BLOCKED	n/a	n/a	+	0	distressed	At this moment	5	3	12	215	NONE	n/a	0	128.304836372827	1.72230384083372	-0.000368136789774953	16.8088531964344	2101.76903870162	0	1553.99216910074	0.0565657873366103	0.000181547899977467	31.9170320265645	1758.04919292852	1	4	0	1	0	0	0
256.578068443589	2.51849879810959	reward_vlpfc	259.096567241698	49	2	9	10	0	0	0	0	250	250	250	750	2000	0	BLOCKED	0.75	-1	2	1	inspired	At this moment	2	3	12	215	VLPFC	639.445249401033	0	10137.5877962492	-7.54802986492984	0.00176238112425993	32.2385814324311	2140.05493133583	0.259031514219831	n/a	n/a	n/a	n/a	1833.08195020747	1	1	1	0	0	0	0
260.097167395234	2.51881297954168	reward_vlpfc	262.615980374776	50	2	9	10	0	0	0	0	250	250	250	750	2000	0	BLOCKED	0.75	-1	6	-1	strong	At this moment	3	3	12	215	VLPFC	530.885515600443	0.580524344569288	n/a	n/a	n/a	n/a	2380.81845238095	0	1559.35247621882	0.406239706783883	0.000103069204781431	31.9901411081952	1993.52651806303	1	2	1	0	0	0	0
263.616770236053	2.51872976200286	reward_vlpfc	266.135499998055	51	2	9	10	0	0	0	0	250	250	250	750	2000	0	BLOCKED	0.75	-1	2	1	enthusiastic	At this moment	2	3	12	215	VLPFC	472.728452384472	0	10048.3100888547	-7.05268031507895	0.00158493025463684	36.5094111037201	2310.88264669164	0	1736.03220244815	0.495024961979957	2.3383477308246e-05	20.3850975249468	2177.01383551115	0	3	1	0	0	0	0
267.11969748313	2.51872200444342	reward_vlpfc	269.638419487573	52	2	9	10	0	0	0	0	250	250	250	750	2000	0	BLOCKED	0.75	1	7	1	proud	At this moment	4	3	12	215	VLPFC	639.988631635904	0	9549.96626438658	-6.63475792412443	0.00149453207870782	24.5611676071442	2276.51560549313	0	1342.47208369099	1.09072284174915	-0.000272425237930533	16.5692704400049	2033.92083013067	0	4	1	0	0	0	0
270.639029161744	2.51897200965141	reward_vlpfc	273.158001171395	53	2	9	10	0	0	0	0	250	250	250	750	2000	0	BLOCKED	0.75	-1	9	-1	upset	At this moment	2	3	12	215	VLPFC	767.967316672206	0.450686641697878	n/a	n/a	n/a	n/a	2254.29318181818	0	1035.6622142986	0.256229844916064	0.000303407465841528	28.107262508418	1515.67870868563	1	5	1	0	0	0	0
274.158695120946	2.51868956372141	reward_vlpfc	276.677384684667	54	2	9	10	0	0	0	0	250	250	250	750	2000	0	BLOCKED	0.75	-1	1	1	alert	At this moment	5	3	12	215	VLPFC	973.263548150659	0	14050.7025127061	-11.0743082729089	0.00254836009024138	29.4675148249117	2159.07740324594	0	1683.42047561107	0.548881873367279	-6.07878024522546e-05	16.015990984343	2096.34127594158	0	6	1	0	0	0	0
277.661508472845	2.53542545489967	reward_vlpfc	280.196933927745	55	2	9	10	0	0	0	0	250	250	250	750	2000	0	BLOCKED	0.75	-1	2	1	inspired	At this moment	2	3	12	215	VLPFC	556.402266487479	0	14036.6035241253	-10.9602648089832	0.00250669201818564	38.4980364520974	2195.93133583021	0	1478.19321111603	0.24491539509348	0.000250117703777074	50.0217755497232	1903.11683320523	0	7	1	0	0	0	0
281.197623998523	2.51878653328862	reward_vlpfc	283.716410531811	56	2	9	10	0	0	0	0	250	250	250	750	2000	0	BLOCKED	0.75	1	6	1	afraid	At this moment	1	3	12	215	VLPFC	524.014780282974	0	13062.334156054	-10.2083261300863	0.00235302828186283	31.5947298167855	2116.4631710362	0.257494235203689	n/a	n/a	n/a	n/a	2108.23498964803	1	8	1	0	0	0	0
284.721599638365	6.00061602126061	panas_none	290.722215659626	57	5	10	10	n/a	n/a	n/a	n/a	n/a	n/a	n/a	n/a	2000	0	BLOCKED	n/a	n/a	+	0	determined	At this moment	4	3	12	215	NONE	n/a	0.173533083645443	1832.11610333502	-1.08774992289122	0.000381067268701676	10.4461053334125	1208.44259818731	0	1984.87097277552	-0.869131148679046	0.000243804460005586	55.4584754982152	1460.22674865488	1	1	0	1	0	1	1
291.722879989393	6.02161998434366	panas_none	297.744499973737	58	5	10	10	n/a	n/a	n/a	n/a	n/a	n/a	n/a	n/a	2000	0	BLOCKED	n/a	n/a	+	0	enthusiastic	At this moment	3	3	12	215	NONE	n/a	0	894.447061776353	-0.031405762923989	0.00011999140029398	12.6827609070876	1360.24594257179	0	1454.11666977651	-0.417108317486354	0.000169560192420737	32.7436853296107	1245.92006149116	2	2	0	1	0	1	1
298.745338848717	6.00485623644295	panas_none	304.75019508516	59	5	10	10	n/a	n/a	n/a	n/a	n/a	n/a	n/a	n/a	2000	0	BLOCKED	n/a	n/a	+	0	ashamed	At this moment	1	3	12	215	NONE	n/a	0	5076.38633822152	-3.55055381836476	0.000921746285588734	23.3296613219228	1734.03995006242	0	2622.03941893935	-1.84563405915767	0.0008498928242111	36.0129425082707	1785.12836279785	0	3	0	1	0	1	1
305.734198631063	6.78898996841161	panas_none	312.523188599475	60	5	10	10	n/a	n/a	n/a	n/a	n/a	n/a	n/a	n/a	2000	0	BLOCKED	n/a	n/a	+	0	inspired	At this moment	5	3	12	215	NONE	n/a	0	1342.61669726477	0.0832664429594719	4.26603435678065e-05	13.9117832320794	1708.13982521848	0.324365872405842	n/a	n/a	n/a	n/a	1227.03526734926	1	4	0	1	0	1	1
313.524085303612	2.51863526073845	punish_vlpfc	316.04272056435	61	4	11	10	0	0	0	0	250	250	250	750	2000	0	BLOCKED	0.25	-1	8	-1	active	At this moment	2	3	12	215	VLPFC	857.716010317206	0	4520.09023643212	-2.15085699448211	0.000525089038822419	15.3640610755969	2342.15480649189	0	809.656683846051	1.13977557416267	-0.000132904515872597	26.200824315727	1663.87240584166	0	1	0	0	1	0	0
317.026720231488	2.51877983357014	punish_vlpfc	319.545500065058	62	4	11	10	0	0	0	0	250	250	250	750	2000	0	BLOCKED	0.25	-1	8	-1	alert	At this moment	3	3	12	215	VLPFC	223.156264528632	0.489388264669164	n/a	n/a	n/a	n/a	2551.0880195599	0	1564.50121996733	1.13649793178397	-0.00033730198658568	22.400198636797	2240.65257494235	1	2	0	0	1	0	0
320.533687407456	2.51467431797835	punish_vlpfc	323.048361725435	63	4	11	10	0	0	0	0	250	250	250	750	2000	0	BLOCKED	0.25	1	3	-1	upset	At this moment	3	3	12	215	VLPFC	1019.72854865342	0	8699.47909710133	-5.58891607166946	0.00122626788108944	21.6934248645776	2422.69163545568	0	1815.87804701691	0.790909653192085	-0.000217705815401604	14.4520036185531	2299.94850115296	0	3	0	0	1	0	0
324.049309911601	2.51862503486126	punish_vlpfc	326.567934946463	64	4	11	10	0	0	0	0	250	250	250	750	2000	0	BLOCKED	0.25	-1	10	-1	guilty	At this moment	1	3	12	215	VLPFC	1474.74224603176	0	3313.47020589914	-0.554665646313211	6.76569764361395e-05	40.4467920604744	2450.98501872659	0	1622.77767501026	0.759879850268161	-0.00013304577550975	25.5681053687609	2153.69792467333	0	4	0	0	1	0	0
327.552012894481	2.51909718855467	punish_vlpfc	330.071110083036	65	4	11	10	0	0	0	0	250	250	250	750	2000	0	BLOCKED	0.25	-1	4	1	irritable	At this moment	5	3	12	215	VLPFC	1472.1931803301	0	10111.7558538694	-7.4861484916946	0.00171117476804091	34.5424460783102	2028.33458177278	0.302843966179862	n/a	n/a	n/a	n/a	1823.98676957001	1	5	0	0	1	0	0
331.071546975061	2.51871742042897	punish_vlpfc	333.59026439549	66	4	11	10	0	0	0	0	250	250	250	750	2000	0	BLOCKED	0.25	-1	0	1	active	At this moment	2	3	12	215	VLPFC	873.595043055713	0	8244.33696744252	-5.68568403059017	0.00131673137038672	26.0494253896797	2180.91760299625	0	1439.09360351231	0.735629010432054	-9.29840657383903e-05	26.8847838180425	1990.31975403536	0	6	0	0	1	0	0
334.591077882081	2.51878406497838	punish_vlpfc	337.10986194706	67	4	11	10	0	0	0	0	250	250	250	750	2000	0	BLOCKED	0.25	-1	8	-1	nervous	At this moment	1	3	12	215	VLPFC	1040.19300825149	0	3072.87606179657	-1.04210246795032	0.000289229121244494	21.3569091319676	2175.78776529338	0	1348.76814872581	0.893561559729548	-0.000232416315812865	23.3987372961442	1908.28900845503	0	7	0	0	1	0	0
338.110538971014	2.53538984061777	punish_vlpfc	340.645928811632	68	4	11	10	0	0	0	0	250	250	250	750	2000	0	BLOCKED	0.25	-1	6	-1	strong	At this moment	4	3	12	215	VLPFC	1471.86066283286	0	2240.89643525222	-0.31974071926857	0.000104332702626951	19.9838353201864	2035.52933832709	0.292083013066872	n/a	n/a	n/a	n/a	1655.21498371335	1	8	0	0	1	0	0
341.630180952288	6.00491477078947	panas_none	347.635095723078	69	5	12	10	n/a	n/a	n/a	n/a	n/a	n/a	n/a	n/a	2000	0	BLOCKED	n/a	n/a	+	0	excited	At this moment	2	3	12	215	NONE	n/a	0	760.928936616629	0.116988525258942	6.17719977130993e-05	16.3123930950868	1282.29837702871	0	1728.24386252712	-0.541098924181573	0.000164486285415306	69.9165704405585	1412.68178324366	0	1	0	1	0	0	1
348.635724791169	6.00496625283364	panas_none	354.640691044003	70	5	12	10	n/a	n/a	n/a	n/a	n/a	n/a	n/a	n/a	2000	0	BLOCKED	n/a	n/a	+	0	determined	At this moment	4	3	12	215	NONE	n/a	0	4074.87979447885	-2.72692189126816	0.000673620874465907	16.2900963520722	1355.3645443196	0	1404.38745228346	-0.253390354889912	0.000145032594377669	23.1384967184664	1313.90545734051	0	2	0	1	0	0	1
355.624852209546	6.00487809866667	panas_none	361.629730308212	71	5	12	10	n/a	n/a	n/a	n/a	n/a	n/a	n/a	n/a	2000	0	BLOCKED	n/a	n/a	+	0	hostile	At this moment	1	3	12	215	NONE	n/a	0.489388264669164	n/a	n/a	n/a	n/a	1638.15158924205	0	1581.01046047089	0.346748320985196	-0.000182325788271055	49.4199811667814	1719.02690238278	1	3	0	1	0	0	1
362.630468334846	9.17415453988315	panas_none	371.804622874729	72	5	12	10	n/a	n/a	n/a	n/a	n/a	n/a	n/a	n/a	2000	0	BLOCKED	n/a	n/a	+	0	strong	At this moment	1	3	12	215	NONE	n/a	0	2836.07982173803	-1.36426510470903	0.000368036081199099	12.937483022089	1613.56054931336	0.398923904688701	n/a	n/a	n/a	n/a	1024.53069053708	1	4	0	1	0	0	1
372.805547435582	2.51854957490417	punish_rtpj	375.324097010486	73	3	13	10	750	250	250	250	0	0	0	0	2000	0	BLOCKED	0.25	1	1	-1	active	At this moment	3	3	12	215	RTPJ	673.224866099656	0	2352.02032701682	-0.391320925205317	0.000164449379211464	22.5007439186328	2264.28339575531	0	734.371737535922	0.728203397870252	6.57910544771461e-05	20.5413531387423	1410.54727132975	0	1	0	0	1	0	0
376.325039202161	2.51868004304919	punish_rtpj	378.84371924521	74	3	13	10	750	250	250	250	0	0	0	0	2000	0	BLOCKED	0.25	-1	9	-1	alert	At this moment	3	3	12	215	RTPJ	739.932177700102	0.538077403245943	n/a	n/a	n/a	n/a	2236.84054054054	0	1070.15863705225	0.520029581964235	0.000158494897844808	26.6063390637865	1649.09992313605	1	2	0	0	1	0	0
379.844541899845	2.51870190530269	punish_rtpj	382.363243805148	75	3	13	10	750	250	250	250	0	0	0	0	2000	0	BLOCKED	0.25	-1	0	1	scared	At this moment	3	3	12	215	RTPJ	656.413162335753	0	6427.30539860305	-3.83321357896864	0.000892899729686776	28.1508296909833	2362.81897627965	0	1391.62625568321	0.825232472953419	-0.000109520539078913	21.0577128934113	1999.45426594927	0	3	0	0	1	0	0
383.363959616922	2.51874809808288	punish_rtpj	385.882707715005	76	3	13	10	750	250	250	250	0	0	0	0	2000	0	BLOCKED	0.25	1	1	-1	strong	At this moment	5	3	12	215	RTPJ	556.648040294647	0.50187265917603	n/a	n/a	n/a	n/a	2366.2305764411	0.243658724058417	1438.81250578436	0.967201696359717	-0.000222269385182363	22.2628582491733	2100.25711382114	2	4	0	0	1	0	0
386.883529664397	2.51883025775845	punish_rtpj	389.402359922156	77	3	13	10	750	250	250	250	0	0	0	0	2000	0	BLOCKED	0.25	1	4	-1	inspired	At this moment	1	3	12	215	RTPJ	490.040871791542	0.541822721598002	n/a	n/a	n/a	n/a	2441.01634877384	0	1720.59102739123	0.829706176079121	-0.000229040164240372	16.2057147338668	2227.64027671022	1	5	0	0	1	0	0
390.38643081785	2.51881932663173	punish_rtpj	392.905250144482	78	3	13	10	750	250	250	250	0	0	0	0	2000	0	BLOCKED	0.25	-1	10	-1	nervous	At this moment	1	3	12	215	RTPJ	940.11793615669	0	3346.4308722798	-1.03751976254282	0.000290550238568481	17.6960431959198	2464.24094881398	0	1702.19825611743	0.654569570609217	-0.000107179776738458	33.9117097290024	2165.98923904689	0	6	0	0	1	0	0
393.889184224918	2.51876608152685	punish_rtpj	396.407950306445	79	3	13	10	750	250	250	250	0	0	0	0	2000	0	BLOCKED	0.25	1	2	-1	proud	At this moment	1	3	12	215	RTPJ	890.500542849302	0	3015.39427196393	-0.840380777341085	0.000223995205802532	20.6308587430692	2250.03870162297	0.274404304381245	n/a	n/a	n/a	n/a	1732.58898305085	1	7	0	0	1	0	0
397.40866223944	2.518835194394	punish_rtpj	399.927497433834	80	3	13	10	750	250	250	250	0	0	0	0	2000	0	BLOCKED	0.25	-1	3	1	hostile	At this moment	5	3	12	215	RTPJ	406.979200214148	0	8245.5889473138	-5.62800691329599	0.00127270922417494	23.1343565636903	2107.14357053683	0	1574.38886964526	0.84139283669838	-0.000207896179717842	23.0630825146004	2109.14834742506	0	8	0	0	1	0	0
400.928337366685	6.02150079990923	panas_none	406.949838166595	81	5	14	10	n/a	n/a	n/a	n/a	n/a	n/a	n/a	n/a	2000	0	BLOCKED	n/a	n/a	+	0	afraid	At this moment	1	3	12	215	NONE	n/a	0.373283395755306	n/a	n/a	n/a	n/a	1384.43426294821	0	1564.12601536862	-0.271687726662017	8.93180610686986e-05	92.2969082582863	1412.25595695619	1	1	0	1	0	0	0
407.950586771727	6.00497894702107	panas_none	413.955565718748	82	5	14	10	n/a	n/a	n/a	n/a	n/a	n/a	n/a	n/a	2000	0	BLOCKED	n/a	n/a	+	0	distressed	At this moment	2	3	12	215	NONE	n/a	0	987.743668470709	0.1006896320495	1.17647358681961e-05	24.0719580290478	1251.95880149813	0	1237.92574216758	0.0834599517138317	0.000115583610543707	24.2440644890609	1391.56264411991	0	2	0	1	0	0	0
414.956342180595	6.02152900924534	panas_none	420.97787118984	83	5	14	10	n/a	n/a	n/a	n/a	n/a	n/a	n/a	n/a	2000	0	BLOCKED	n/a	n/a	+	0	scared	At this moment	1	3	12	215	NONE	n/a	0.426966292134831	n/a	n/a	n/a	n/a	1368.17211328976	0	1075.39214338793	-0.136800005313454	0.000211616029799017	19.1356364921397	1142.0384319754	1	3	0	1	0	0	0
421.995768952884	9.70770618993043	panas_none	431.703475142814	84	5	14	10	n/a	n/a	n/a	n/a	n/a	n/a	n/a	n/a	2000	0	BLOCKED	n/a	n/a	+	0	strong	At this moment	5	3	12	215	NONE	n/a	0	2382.75689551408	-0.759029744521461	0.000214074515130099	22.5379574832492	1743.50187265918	0	903.156831456156	0.578356645586172	1.28146438785929e-05	23.1850256280556	1405.87163720215	0	4	0	1	0	0	0
432.704099979512	2.53537432548399	punish_vlpfc	435.239474304996	85	4	15	10	0	0	0	0	250	250	250	750	2000	0	BLOCKED	0.25	1	6	1	enthusiastic	At this moment	3	3	12	215	VLPFC	890.008995257318	0	10532.462984941	-7.90310126193071	0.0018078971295107	29.4841647592292	1989.0024968789	0	794.597046617287	1.0195000153379	-0.000159006695590674	20.942376347715	1527.18216756341	0	1	0	0	1	0	0
436.24032693205	2.51867334333809	punish_vlpfc	438.759000275388	86	4	15	10	0	0	0	0	250	250	250	750	2000	0	BLOCKED	0.25	1	4	-1	inspired	At this moment	1	3	12	215	VLPFC	690.236856125295	0	466.077839914613	1.5274509298339	-0.000292323520976297	15.4100064977343	2368.78277153558	0	1245.04324894154	0.777989733991901	-8.80104328960541e-05	20.2808626627744	1831.59646425826	0	2	0	0	1	0	0
439.759868417576	2.51869732127341	punish_vlpfc	442.278565738849	87	4	15	10	0	0	0	0	250	250	250	750	2000	0	BLOCKED	0.25	1	2	-1	attentive	At this moment	1	3	12	215	VLPFC	657.557755954564	0.535580524344569	n/a	n/a	n/a	n/a	2224.97311827957	0.245964642582629	1582.72426982625	0.839749005033214	-0.000243790563750263	31.753079747303	2084.27217125382	2	3	0	0	1	0	0
443.27939015656	2.51865571251511	punish_vlpfc	445.798045869075	88	4	15	10	0	0	0	0	250	250	250	750	2000	0	BLOCKED	0.25	-1	9	-1	ashamed	At this moment	2	3	12	215	VLPFC	1207.36503333598	0.523096129837703	n/a	n/a	n/a	n/a	2106.84031413613	0.384319754035357	n/a	n/a	n/a	n/a	1901.68164794007	2	4	0	0	1	0	0
446.782249701239	2.51877172339709	punish_vlpfc	449.301021424636	89	4	15	10	0	0	0	0	250	250	250	750	2000	0	BLOCKED	0.25	-1	3	1	excited	At this moment	5	3	12	215	VLPFC	540.11842982471	0	6032.75233798892	-3.27552578990765	0.000725747977336645	27.3811365314254	2392.96379525593	0	1663.6645882716	0.749500596457005	-0.000150477010366423	17.9592372236697	2171.1145272867	0	5	0	0	1	0	0
450.306234861724	2.51424765183776	punish_vlpfc	452.820482513562	90	4	15	10	0	0	0	0	250	250	250	750	2000	0	BLOCKED	0.25	1	4	-1	enthusiastic	At this moment	2	3	12	215	VLPFC	753.203610368073	0.579275905118602	n/a	n/a	n/a	n/a	2355.28189910979	0	1231.79557591003	0.942825302536002	-0.000148765080471775	18.4444058261489	1905.45580322829	1	6	0	0	1	0	0
453.806359511711	2.51693564851581	punish_vlpfc	456.323295160227	91	4	15	10	0	0	0	0	250	250	250	750	2000	0	BLOCKED	0.25	1	2	-1	distressed	At this moment	2	3	12	215	VLPFC	538.177275188267	0.574282147315855	n/a	n/a	n/a	n/a	2360.60703812317	0	1328.22731891145	0.961105069064955	-0.000171037369191461	16.8511453021274	1999.35049961568	1	7	0	0	1	0	0
457.324086079359	2.51870261052994	punish_vlpfc	459.842788689889	92	4	15	10	0	0	0	0	250	250	250	750	2000	0	BLOCKED	0.25	1	0	-1	active	At this moment	2	3	12	215	VLPFC	373.097677282989	0	3971.18833297482	-1.52193352502684	0.000363112114971013	20.3572795596813	2395.52059925094	0	1273.48296002681	1.05462433246682	-0.000236546347466073	24.043809411585	1966.36971560338	0	8	0	0	1	0	0
460.843648016661	6.00482802709939	panas_none	466.848476043761	93	5	16	10	n/a	n/a	n/a	n/a	n/a	n/a	n/a	n/a	2000	0	BLOCKED	n/a	n/a	+	0	afraid	At this moment	1	3	12	215	NONE	n/a	0	-357.363645357656	1.27925222123886	-0.000213223433859883	23.3410764724394	1377.62671660424	0	1810.07187075838	-0.744920855797214	0.000216067392024449	95.2077819488168	1367.50960799385	0	1	0	1	0	0	1
467.834134419583	6.00335479474813	panas_none	473.837489214331	94	5	16	10	n/a	n/a	n/a	n/a	n/a	n/a	n/a	n/a	2000	0	BLOCKED	n/a	n/a	+	0	alert	At this moment	4	3	12	215	NONE	n/a	0	1444.15644596648	-0.907225192800451	0.000323487761766632	12.6391467721762	983.021223470662	0	876.985150980135	-0.158842613848933	9.65157171849823e-05	9.29444371427631	825.515757109915	0	2	0	1	0	0	1
474.838272728525	6.00498106271772	panas_none	480.843253791243	95	5	16	10	n/a	n/a	n/a	n/a	n/a	n/a	n/a	n/a	2000	0	BLOCKED	n/a	n/a	+	0	nervous	At this moment	1	3	12	215	NONE	n/a	0	-820.416979631329	1.41168275943056	-0.00018192389610785	20.5663298397362	1332.24094881398	0	1497.27841089459	0.284326370212189	-0.000360337795275094	18.6403665108825	1429.40199846272	0	3	0	1	0	0	1
481.844009448715	9.75795229872318	panas_none	491.601961747438	96	5	16	10	n/a	n/a	n/a	n/a	n/a	n/a	n/a	n/a	2000	0	BLOCKED	n/a	n/a	+	0	active	At this moment	4	3	12	215	NONE	n/a	0	1027.99791838729	0.974636704012314	-0.000238553414145848	17.8181817864576	1995.70037453184	0.175249807840123	1102.62924987808	0.579031224248146	4.17288517369494e-05	16.7364630511255	1556.45107176142	1	4	0	1	0	0	1
