onset	duration	trial_type	offset	trial	block	blockCntr	frequency	amplitude_1	amplitude_2	amplitude_3	amplitude_4	amplitude_5	amplitude_6	amplitude_7	amplitude_8	transition	sham	mode	rewardFraction	guess	outcome	correct	word	when	answer	runNr	scanNr	subjectNr	target	reactionTime	outcomeEyeClosed	outcomeParms_1	outcomeParms_2	outcomeParms_3	outcomeSigma	outcomePupilArea	guessEyeClosed	guessParms_1	guessParms_2	guessParms_3	guessSigma	guessPupilArea	nrBlinks	trialInBlock	isReward	isPanas	isPunish	beforePanasReward	beforePanasVLPFC
20.3585109845325	2.50870451819151	punish_rtpj	22.8672155027241	1	3	1	10	750	250	250	250	0	0	0	0	2000	0	BLOCKED	0.25	1	7	1	ashamed	At this moment	5	2	8	215	RTPJ	747.70666950196	0	8070.30346092039	-5.68741367136502	0.00134673898990298	25.7226807252145	2135.74157303371	0.234435049961568	1525.13630965453	0.0665785296396031	0.000240052351469223	25.3084848788577	1816.78714859438	1	1	0	0	1	0	0
23.8680148846507	2.51883872055262	punish_rtpj	26.3868536052033	2	3	1	10	750	250	250	250	0	0	0	0	2000	0	BLOCKED	0.25	1	1	-1	jittery	At this moment	4	2	8	215	RTPJ	325.547322742641	0	3513.36940640156	-1.00676114692322	0.000261006535178447	17.3949185178698	2563.74781523096	0	1678.31035796869	0.383780587076406	0.000120978118730251	22.8877181211862	2108.42198308993	1	2	0	0	1	0	0
27.3876653287187	2.51879675917327	punish_rtpj	29.906462087892	3	3	1	10	750	250	250	250	0	0	0	0	2000	0	BLOCKED	0.25	-1	8	-1	determined	At this moment	3	2	8	215	RTPJ	656.67797742784	0	5284.48591065579	-2.56540374497235	0.000587755944339181	27.5065758758394	2520.5468164794	0	1799.00258931841	0.56574785781878	-4.93355796999435e-05	34.6337798124024	2238.19677171407	0	3	0	0	1	0	0
30.9070883350447	2.53553088728339	punish_rtpj	33.4426192223281	4	3	1	10	750	250	250	250	0	0	0	0	2000	0	BLOCKED	0.25	1	8	1	attentive	At this moment	4	2	8	215	RTPJ	1188.03705719113	0	17226.3979012678	-13.4351045069966	0.00297275688243695	26.9618482865457	2248.03620474407	0	1886.18903025968	0.639148209290305	-0.000143041881087242	16.9515189801775	2305.96617986164	0	4	0	0	1	0	0
34.4432895465717	2.51883166821301	punish_rtpj	36.9621212147847	5	3	1	10	750	250	250	250	0	0	0	0	2000	0	BLOCKED	0.25	1	3	-1	alert	At this moment	5	2	8	215	RTPJ	773.749171793461	0	5197.47893017031	-2.66475509324087	0.000642024361342534	30.1744664849412	2467.42072409488	0	1757.1874464179	0.621406932378142	-7.97844073894431e-05	24.0451157261158	2215.06379707917	0	5	0	0	1	0	0
37.9463666557148	2.51859506245702	punish_rtpj	40.4649617181718	6	3	1	10	750	250	250	250	0	0	0	0	2000	0	BLOCKED	0.25	-1	10	-1	scared	At this moment	2	2	8	215	RTPJ	524.12973330915	0.434456928838951	n/a	n/a	n/a	n/a	2422.38631346578	0	1864.71660574792	-0.0561671359711968	0.000303282634194929	25.5273335041455	2077.68870099923	2	6	0	0	1	0	0
41.4491161840111	2.51869696865975	punish_rtpj	43.9678131526709	7	3	1	10	750	250	250	250	0	0	0	0	2000	0	BLOCKED	0.25	-1	8	-1	determined	At this moment	1	2	8	215	RTPJ	490.005610130727	0.594257178526841	n/a	n/a	n/a	n/a	2458.63692307692	0	1675.25080506346	0.684222198410896	-6.93440620136876e-05	28.1293120631241	2196.48039969254	1	7	0	0	1	0	0
44.951990185976	2.51866875932365	punish_rtpj	47.4706589452997	8	3	1	10	750	250	250	250	0	0	0	0	2000	0	BLOCKED	0.25	-1	10	-1	distressed	At this moment	5	2	8	215	RTPJ	190.57624964416	0.463171036204744	n/a	n/a	n/a	n/a	2466.80930232558	0	1659.08354980275	0.584661334955659	-5.71513112273916e-05	23.2206227701052	2105.83935434281	1	8	0	0	1	0	0
48.4724012241364	6.02066121967881	panas_none	54.4930624438152	9	5	2	10	n/a	n/a	n/a	n/a	n/a	n/a	n/a	n/a	2000	0	BLOCKED	n/a	n/a	+	0	nervous	At this moment	3	2	8	215	NONE	n/a	0	-684.845352736331	1.67361756075615	-0.00029534615817276	14.4592622043839	1511.44319600499	0	2141.64485905926	-0.447333471996538	1.75677211017614e-05	109.139726554193	1780.58570330515	0	1	0	1	0	0	0
55.4770568217039	6.02164114133269	panas_none	61.4986979630366	10	5	2	10	n/a	n/a	n/a	n/a	n/a	n/a	n/a	n/a	2000	0	BLOCKED	n/a	n/a	+	0	active	At this moment	4	2	8	215	NONE	n/a	0.439450686641698	n/a	n/a	n/a	n/a	1821.00668151448	0.242890084550346	1083.58235166247	1.86124177500134	-0.000965576729664995	51.0797980948655	1877.01218274112	2	2	0	1	0	0	0
62.4828601864427	6.02153041970729	panas_none	68.50439060615	11	5	2	10	n/a	n/a	n/a	n/a	n/a	n/a	n/a	n/a	2000	0	BLOCKED	n/a	n/a	+	0	afraid	At this moment	1	2	8	215	NONE	n/a	0	1855.69716840164	-0.0137539439846535	3.56016200971814e-05	26.0901928438088	1985.17103620474	0	2075.09379398898	-0.376870971008158	9.80423203834996e-05	34.2684703498861	1841.12221368178	0	3	0	1	0	0	0
69.511146741055	10.0855243462473	panas_none	79.5966710873023	12	5	2	10	n/a	n/a	n/a	n/a	n/a	n/a	n/a	n/a	2000	0	BLOCKED	n/a	n/a	+	0	irritable	At this moment	4	2	8	215	NONE	n/a	0	1288.54625845003	0.588119968860553	-5.35747299491241e-05	16.1809983960055	2284.02871410737	0	1417.18799780683	0.449367055955029	-1.00894825375416e-05	18.0403996594465	1790.62413528055	0	4	0	1	0	0	0
80.5809718890414	2.51857284760474	punish_vlpfc	83.0995447366461	13	4	3	10	0	0	0	0	250	250	250	750	2000	0	BLOCKED	0.25	-1	10	-1	determined	At this moment	1	2	8	215	VLPFC	357.518368683755	0	2536.93149588426	-0.163778532265438	4.98277970775258e-05	21.3337467561173	2415.67790262172	0	941.548638871889	0.956272006882851	-4.07734932398061e-05	20.1509054527053	1719.52498078401	0	1	0	0	1	0	0
84.0837355219945	2.5188165057078	punish_vlpfc	86.6025520277023	14	4	3	10	0	0	0	0	250	250	250	750	2000	0	BLOCKED	0.25	1	7	1	interested	At this moment	3	2	8	215	VLPFC	923.973735705018	0	10918.6391162598	-7.76599091714617	0.00173788111806892	25.0959468935186	2355.12734082397	0	1631.01031566787	0.968938977190817	-0.000261907635624816	15.7199019575037	2228.54803996925	0	2	0	0	1	0	0
87.5864875186011	2.51884118887037	punish_vlpfc	90.1053287074715	15	4	3	10	0	0	0	0	250	250	250	750	2000	0	BLOCKED	0.25	1	1	-1	alert	At this moment	2	2	8	215	VLPFC	673.818319916725	0.052434456928839	2740.41035001725	-0.178843920184002	7.60828093006549e-06	22.6031458768678	2402.06324110672	0	1523.64980397614	0.654405148310719	-6.06963827897465e-05	25.4695696756078	2027.90084550346	1	3	0	0	1	0	0
91.0893502368331	2.51876819722354	punish_vlpfc	93.6081184340566	16	4	3	10	0	0	0	0	250	250	250	750	2000	0	BLOCKED	0.25	-1	2	1	afraid	At this moment	4	2	8	215	VLPFC	656.695608265698	0	7539.62617819839	-4.90668424702164	0.00107592559871404	42.1582424294883	2035.67415730337	0	1050.59399147097	0.674744865217132	5.26086288398168e-05	47.108226629424	1671.43351268255	0	4	0	0	1	0	0
94.592519731544	2.51840500207246	punish_vlpfc	97.1109247336164	17	4	3	10	0	0	0	0	250	250	250	750	2000	0	BLOCKED	0.25	-1	10	-1	jittery	At this moment	3	2	8	215	VLPFC	325.902055084705	0	5596.88778572368	-3.19758563725141	0.00073954807367491	36.251891710865	2115.29712858926	0	990.830304185585	0.930186502442705	-9.27249206980327e-05	30.9442105442474	1702.41967717141	0	5	0	0	1	0	0
98.1118387159631	2.51866981717944	punish_vlpfc	100.630508533143	18	4	3	10	0	0	0	0	250	250	250	750	2000	0	BLOCKED	0.25	1	0	-1	inspired	At this moment	1	2	8	215	VLPFC	1241.49973501265	0.0986267166042447	4439.78670301639	-2.17849514597285	0.000556788472721784	23.5225993206432	2339.28531855956	0	1355.65953581998	0.693368847381992	-4.34396065386444e-05	33.1606680398932	1906.33589546503	1	6	0	0	1	0	0
101.614753621459	2.51867016980053	punish_vlpfc	104.13342379126	19	4	3	10	0	0	0	0	250	250	250	750	2000	0	BLOCKED	0.25	-1	7	-1	hostile	At this moment	1	2	8	215	VLPFC	739.940287895501	0.605493133583021	n/a	n/a	n/a	n/a	2184.92721518987	0.285165257494235	n/a	n/a	n/a	n/a	2136.15268817204	2	7	0	0	1	0	0
105.11753876403	2.51872694107145	punish_vlpfc	107.636265705101	20	4	3	10	0	0	0	0	250	250	250	750	2000	0	BLOCKED	0.25	1	4	-1	upset	At this moment	5	2	8	215	VLPFC	1056.81711995602	0	2055.25340335353	-0.0191735335886776	7.40088663642022e-05	21.9470099451998	2345.09238451935	0	1089.1639193818	0.245659436246943	0.000340784764361224	41.2734050532222	1592.19215987702	0	8	0	0	1	0	0
108.620363047048	6.02145883852243	panas_none	114.641821885571	21	5	4	10	n/a	n/a	n/a	n/a	n/a	n/a	n/a	n/a	2000	0	BLOCKED	n/a	n/a	+	0	distressed	At this moment	4	2	8	215	NONE	n/a	0.373283395755306	n/a	n/a	n/a	n/a	1288.35258964143	0	1808.57253236014	-0.538169769139037	0.000116644944954315	117.416240195836	1455.01460415065	2	1	0	1	0	0	1
115.643081784844	6.02119860744476	panas_none	121.664280392289	22	5	4	10	n/a	n/a	n/a	n/a	n/a	n/a	n/a	n/a	2000	0	BLOCKED	n/a	n/a	+	0	enthusiastic	At this moment	3	2	8	215	NONE	n/a	0	46.3107154284119	1.08294114128359	-0.000141758222811193	15.6929918774206	1687.42571785268	0	2097.74335177002	-0.150464007503477	-0.000163488800095741	41.3209191231948	1827.92621060723	2	2	0	1	0	0	1
122.648314263232	6.02163408900797	panas_none	128.66994835224	23	5	4	10	n/a	n/a	n/a	n/a	n/a	n/a	n/a	n/a	2000	0	BLOCKED	n/a	n/a	+	0	nervous	At this moment	1	2	8	215	NONE	n/a	0	1449.64215631165	0.141133718592017	5.01307483381035e-05	14.8766792207434	1969.56054931336	0	2308.57438794928	-0.277495182092955	-3.35646148206826e-06	26.3888310714655	2070.8762490392	0	3	0	1	0	0	1
129.670781937987	12.2599066764787	panas_none	141.930688614465	24	5	4	10	n/a	n/a	n/a	n/a	n/a	n/a	n/a	n/a	2000	0	BLOCKED	n/a	n/a	+	0	interested	At this moment	2	2	8	215	NONE	n/a	0	-222.310012969	1.65818009322221	-0.000302722142343326	18.8414494243538	1908.88514357054	0	904.139967222509	0.231675906825213	0.000235276239995696	32.3650556240892	1303.78478093774	1	4	0	1	0	0	1
142.931509506017	2.51872905677558	reward_vlpfc	145.450238562793	25	2	5	10	0	0	0	0	250	250	250	750	2000	0	BLOCKED	0.75	1	6	1	excited	At this moment	4	2	8	215	VLPFC	340.990168690681	0	11708.4987630594	-9.15698994131014	0.00213577172886389	27.9103458663643	1995.74157303371	0	768.14267843765	1.39770684660263	-0.00044929948968768	36.3011841951728	1568.07225211376	0	1	1	0	0	0	0
146.450965658307	2.51873610910775	reward_vlpfc	148.969701767415	26	2	5	10	0	0	0	0	250	250	250	750	2000	0	BLOCKED	0.75	1	10	1	active	At this moment	3	2	8	215	VLPFC	890.683198273182	0	11871.0608316597	-8.81623473223546	0.0019906864387659	21.5306458283536	2226.71785268414	0	1498.68389895766	0.531751616928361	1.15951109408935e-05	16.7555932321933	1960.72943889316	0	2	1	0	0	0	0
149.972458876967	2.53351356745512	reward_vlpfc	152.505972444423	27	2	5	10	0	0	0	0	250	250	250	750	2000	0	BLOCKED	0.75	1	6	1	attentive	At this moment	1	2	8	215	VLPFC	871.310792423785	0	8738.88406508462	-6.10079692963582	0.00141669592653007	35.1677768921035	2251.0836454432	0	1373.32540853611	0.63816930581104	1.87005417265035e-06	39.5091454015261	1919.83243658724	0	3	1	0	0	0	0
153.506798272602	2.5187696076855	reward_vlpfc	156.025567880288	28	2	5	10	0	0	0	0	250	250	250	750	2000	0	BLOCKED	0.75	-1	4	1	guilty	At this moment	1	2	8	215	VLPFC	1073.73672442138	0	8453.51518398154	-5.79260067688009	0.00135772218937175	29.0193980524178	2346.98252184769	0	1406.43371066935	0.610192182642996	4.50298246027739e-05	37.0439312743141	1963.84550345888	0	4	1	0	0	0	0
157.02636020989	2.51855521676691	reward_vlpfc	159.544915426657	29	2	5	10	0	0	0	0	250	250	250	750	2000	0	BLOCKED	0.75	-1	9	-1	jittery	At this moment	2	2	8	215	VLPFC	807.311224028468	0	1823.60823880118	0.483247582734584	-6.39278688401995e-05	16.6271914339016	2552.79900124844	0	1622.4326822132	0.798186244763167	-0.000187830312589884	16.0095064922819	2138.47117601845	0	5	1	0	0	0	0
160.529152052179	2.53542439705134	reward_vlpfc	163.06457644923	30	2	5	10	0	0	0	0	250	250	250	750	2000	0	BLOCKED	0.75	1	2	-1	interested	At this moment	1	2	8	215	VLPFC	736.067499287426	0	5547.70625334988	-3.10279434000961	0.000768044235491343	19.9516449039808	2459.80024968789	0	1460.60550768061	0.647903402004364	7.62486588582487e-06	37.4750681873734	2017.31514219831	0	6	1	0	0	0	0
164.065421318702	2.518720593974	reward_vlpfc	166.584141912676	31	2	5	10	0	0	0	0	250	250	250	750	2000	0	BLOCKED	0.75	1	9	1	nervous	At this moment	2	2	8	215	VLPFC	556.414255447686	0	5184.96600355777	-2.8787679980166	0.000689694142045637	20.0019306554745	2216.21847690387	0	1241.64590726747	0.754516499704959	-9.59688481487527e-05	34.743148490495	1800.49654112221	0	7	1	0	0	0	0
167.584751234241	2.53560035276413	reward_vlpfc	170.120351587005	32	2	5	10	0	0	0	0	250	250	250	750	2000	0	BLOCKED	0.75	-1	4	1	hostile	At this moment	3	2	8	215	VLPFC	1088.24654673785	0	14167.8462763619	-11.1190867919351	0.00254571031134053	27.2910228289683	2158.22721598002	0	1129.45687787288	0.603268189273089	0.000117071574207451	45.6938271770546	1744.38355111453	0	8	1	0	0	0	0
171.121155905575	6.02150397345423	panas_none	177.142659879029	33	5	6	10	n/a	n/a	n/a	n/a	n/a	n/a	n/a	n/a	2000	0	BLOCKED	n/a	n/a	+	0	irritable	At this moment	3	2	8	215	NONE	n/a	0	898.562630773055	0.162261284505155	7.70021525117196e-05	28.3218811477382	1582.89762796504	0	2155.35315882221	-1.30266919757907	0.000652795319178474	94.1945138154084	1614.14681014604	3	1	0	1	0	1	1
178.143418357432	6.0216432570368	panas_none	184.165061614469	34	5	6	10	n/a	n/a	n/a	n/a	n/a	n/a	n/a	n/a	2000	0	BLOCKED	n/a	n/a	+	0	strong	At this moment	3	2	8	215	NONE	n/a	0	678.31654248085	0.752782275883998	-5.28812516610995e-05	17.4353432219825	2023.13857677903	0	1284.56617942193	1.5477369224304	-0.000839598681189839	62.0479361742979	1874.06610299769	1	2	0	1	0	1	1
185.149137094177	6.02153817727415	panas_none	191.170675271451	35	5	6	10	n/a	n/a	n/a	n/a	n/a	n/a	n/a	n/a	2000	0	BLOCKED	n/a	n/a	+	0	active	At this moment	4	2	8	215	NONE	n/a	0	3504.89853302189	-1.66633975980721	0.000380910520487655	21.6577306338297	1705.88014981273	0	1364.8530555124	0.379728289112745	-9.99604568235624e-05	18.2627223672296	1602.48731744812	0	3	0	1	0	1	1
192.154786718056	10.0081574334577	panas_none	202.162944151513	36	5	6	10	n/a	n/a	n/a	n/a	n/a	n/a	n/a	n/a	2000	0	BLOCKED	n/a	n/a	+	0	guilty	At this moment	4	2	8	215	NONE	n/a	0	2347.47378547948	-0.756445719939983	0.000252041103094839	18.1701521907072	1883.66916354557	0.362797847809377	n/a	n/a	n/a	n/a	1612.77201447527	1	4	0	1	0	1	1
203.1637086244	2.51871459949018	reward_rtpj	205.68242322389	37	1	7	10	750	250	250	250	0	0	0	0	2000	0	BLOCKED	0.75	1	7	1	excited	At this moment	5	2	8	215	RTPJ	573.136041969061	0	8768.69895244684	-6.18837957554616	0.0014525186645808	21.1106539957524	2242.32833957553	0	830.289038985916	1.08606860490955	-0.000111804433454725	27.6503984578606	1657.13143735588	0	1	1	0	0	0	0
206.666610130467	2.53538208305091	reward_rtpj	209.201992213517	38	1	7	10	750	250	250	250	0	0	0	0	2000	0	BLOCKED	0.75	1	7	1	jittery	At this moment	3	2	8	215	RTPJ	590.469618365169	0	10190.9003580477	-7.36443536609611	0.00168192407558995	27.0220302479313	2227.4481897628	0	1431.30907205802	0.774747872878479	-0.000111411310433197	14.6473452983947	1993.62720983859	0	2	1	0	0	0	0
210.207385485098	2.51417783373594	reward_rtpj	212.721563318834	39	1	7	10	750	250	250	250	0	0	0	0	2000	0	BLOCKED	0.75	1	4	-1	enthusiastic	At this moment	4	2	8	215	RTPJ	1102.82512929291	0	6074.37535114598	-3.55679485668697	0.000857342453048077	19.5490400521005	2430.95006242197	0.280553420445811	n/a	n/a	n/a	n/a	2211.25	1	3	1	0	0	0	0
213.722306634724	2.51872341490537	reward_rtpj	216.24103004963	40	1	7	10	750	250	250	250	0	0	0	0	2000	0	BLOCKED	0.75	1	9	1	interested	At this moment	2	2	8	215	RTPJ	990.650017052889	0	7631.38962181437	-4.77448046248287	0.00106397731237044	38.7048979546256	2352.38077403246	0	1358.00156578668	1.03560963002169	-0.000212278556727892	23.2841054125841	2057.94004611837	0	4	1	0	0	0	0
217.225277606264	2.53532742747666	reward_rtpj	219.76060503374	41	1	7	10	750	250	250	250	0	0	0	0	2000	0	BLOCKED	0.75	-1	3	1	active	At this moment	3	2	8	215	RTPJ	574.72034855932	0	9458.08900104067	-6.55991142538826	0.00149469154658349	35.8886551692694	2351.09488139825	0	1566.55392145691	0.335495337373739	0.000191700782479836	53.7614886190307	2017.55111452729	0	5	1	0	0	0	0
220.761480580866	2.51877736525984	reward_rtpj	223.280257946126	42	1	7	10	750	250	250	250	0	0	0	0	2000	0	BLOCKED	0.75	1	7	1	hostile	At this moment	2	2	8	215	RTPJ	573.260515645146	0	8578.68323284956	-5.88132374491503	0.00137002359187839	28.5837116354574	2342.06117353308	0	1517.63699597415	1.13655784885175	-0.000367294491032063	19.3183250432904	2166.72252113759	0	6	1	0	0	0	0
224.264250560924	2.51870719453692	reward_rtpj	226.782957755461	43	1	7	10	750	250	250	250	0	0	0	0	2000	0	BLOCKED	0.75	-1	2	1	proud	At this moment	5	2	8	215	RTPJ	680.465496279299	0	8809.51411639368	-6.06976309323772	0.0013976465318674	28.2147135639299	2296.74282147316	0	1062.34783560644	0.748563596102349	6.21860405114754e-05	33.7199583232922	1752.67025365104	0	7	1	0	0	0	0
227.767002557524	2.51876220273974	reward_rtpj	230.285764760263	44	1	7	10	750	250	250	250	0	0	0	0	2000	0	BLOCKED	0.75	1	0	-1	strong	At this moment	4	2	8	215	RTPJ	506.725280955434	0.493133583021223	n/a	n/a	n/a	n/a	2338.35714285714	0	1455.51972359476	0.792064904003148	-0.00013407076454445	26.2162258174473	2012.56264411991	1	8	1	0	0	0	0
231.286612450682	6.02152407260985	panas_none	237.308136523291	45	5	8	10	n/a	n/a	n/a	n/a	n/a	n/a	n/a	n/a	2000	0	BLOCKED	n/a	n/a	+	0	jittery	At this moment	2	2	8	215	NONE	n/a	0	335.159580953759	0.462174558823829	1.46844769497251e-05	11.5989499235021	1371.33333333333	0	1430.34053400247	0.888743333324405	-0.000673713900429639	29.7397728662562	1656.07148347425	0	1	0	1	0	1	0
238.292329776958	6.02160517443716	panas_none	244.313934951395	46	5	8	10	n/a	n/a	n/a	n/a	n/a	n/a	n/a	n/a	2000	0	BLOCKED	n/a	n/a	+	0	active	At this moment	3	2	8	215	NONE	n/a	0	3877.91575437608	-2.25021722941759	0.000566123545263292	14.9242985435546	1678.93757802747	0	1493.98988404523	0.296247074307501	-0.000140499669583891	33.4934026377388	1624.43658724058	0	2	0	1	0	1	0
245.314652526267	6.02149868421256	panas_none	251.336151210479	47	5	8	10	n/a	n/a	n/a	n/a	n/a	n/a	n/a	n/a	2000	0	BLOCKED	n/a	n/a	+	0	guilty	At this moment	1	2	8	215	NONE	n/a	0	-81.1582149291511	1.28387161118227	-0.000213785768868798	16.75415264745	1661.03495630462	0	1697.54400149461	-0.089483357759462	5.52357758912315e-05	20.6177557090111	1668.01691006918	0	3	0	1	0	1	0
252.320329654247	14.1782530031502	panas_none	266.498582657397	48	5	8	10	n/a	n/a	n/a	n/a	n/a	n/a	n/a	n/a	2000	0	BLOCKED	n/a	n/a	+	0	determined	At this moment	4	2	8	215	NONE	n/a	0.299625468164794	n/a	n/a	n/a	n/a	1647.88770053476	0.532667179093005	n/a	n/a	n/a	n/a	1210.79440789474	7	4	0	1	0	1	0
267.499374986999	2.51867686951158	reward_vlpfc	270.01805185651	49	2	9	10	0	0	0	0	250	250	250	750	2000	0	BLOCKED	0.75	1	1	-1	attentive	At this moment	2	2	8	215	VLPFC	590.081387445331	1	n/a	n/a	n/a	n/a	n/a	1	n/a	n/a	n/a	n/a	n/a	1	1	1	0	0	0	0
271.002135446392	2.51876326059551	reward_vlpfc	273.520898706988	50	2	9	10	0	0	0	0	250	250	250	750	2000	0	BLOCKED	0.75	-1	3	1	proud	At this moment	3	2	8	215	VLPFC	823.627854041755	0	10194.2351729285	-7.23765578608654	0.00164978030318149	24.2683656977074	2343.21348314607	0	1655.09160983453	0.889422166315995	-0.000278065462787792	27.8029566074941	2170.47040737894	2	2	1	0	0	0	0
274.505012269296	2.51872764630616	reward_vlpfc	277.023739915602	51	2	9	10	0	0	0	0	250	250	250	750	2000	0	BLOCKED	0.75	-1	3	1	excited	At this moment	3	2	8	215	VLPFC	540.404754541814	0	10958.096057997	-7.92693730744468	0.00182174841097155	30.7998361435554	2436.70411985019	0	1482.09243356285	0.745324776557506	-1.01263580251733e-05	29.162768605014	2109.85088393543	0	3	1	0	0	0	0
278.024536123984	2.51874915592373	reward_vlpfc	280.543285279907	52	2	9	10	0	0	0	0	250	250	250	750	2000	0	BLOCKED	0.75	1	7	1	hostile	At this moment	1	2	8	215	VLPFC	289.739102475345	0	9478.29601922731	-6.62152417165329	0.00154600375050224	28.2189739991634	2472.76029962547	0	1448.8159510938	1.11873764755075	-0.000270888496103443	19.1610100379506	2179.94388931591	0	4	1	0	0	0	0
281.54407232026	2.51875515040757	reward_vlpfc	284.062827470668	53	2	9	10	0	0	0	0	250	250	250	750	2000	0	BLOCKED	0.75	-1	4	1	distressed	At this moment	4	2	8	215	VLPFC	390.421380423009	0	8326.59014451417	-5.69512586305809	0.00135063411827375	35.0105835631063	2394.14481897628	0	1251.48201137557	1.12630189893117	-0.000267759574510692	22.4595467148193	1988.77325134512	0	5	1	0	0	0	0
285.063600406356	2.51885176736118	reward_vlpfc	287.582452173717	54	2	9	10	0	0	0	0	250	250	250	750	2000	0	BLOCKED	0.75	1	8	1	afraid	At this moment	2	2	8	215	VLPFC	991.44269926101	0	12616.4283081985	-9.53360310467001	0.00216604894364315	30.6654176885052	2253.20848938826	0	1415.37171888275	0.86686665542961	-0.000144665971711222	20.2176435136315	2027.52113758647	0	6	1	0	0	0	0
288.566519895867	2.51861022496223	reward_vlpfc	291.085130120829	55	2	9	10	0	0	0	0	250	250	250	750	2000	0	BLOCKED	0.75	-1	2	1	proud	At this moment	1	2	8	215	VLPFC	693.033458732069	0	9772.99721154341	-7.07634594921509	0.001637551850444	35.7101808457066	2221.822721598	0	1402.28928437556	0.550569610070595	3.84300111803562e-05	41.0827666590999	1903.3620292083	0	7	1	0	0	0	0
292.069344884112	2.51876326058806	reward_vlpfc	294.588108144701	56	2	9	10	0	0	0	0	250	250	250	750	2000	0	BLOCKED	0.75	1	0	-1	inspired	At this moment	5	2	8	215	VLPFC	757.839814014733	0	1695.06389943604	0.289766089834066	-2.90558145760156e-06	16.771365675696	2290.60424469413	0.230591852421214	1092.45857520587	0.765499496474659	-7.04366483264899e-05	27.1899674436861	1730.53446553447	1	8	1	0	0	0	0
295.588802799493	6.05505826813726	panas_none	301.64386106763	57	5	10	10	n/a	n/a	n/a	n/a	n/a	n/a	n/a	n/a	2000	0	BLOCKED	n/a	n/a	+	0	active	At this moment	4	2	8	215	NONE	n/a	0	844.582172766956	-0.243301251685326	0.000195351743844517	11.4155752237445	1205.57178526841	0	2155.92554281747	-1.44176332126428	0.000542488681984878	93.4102943180684	1401.65872405842	0	1	0	1	0	1	1
302.644589926228	6.02148175861686	panas_none	308.666071684845	58	5	10	10	n/a	n/a	n/a	n/a	n/a	n/a	n/a	n/a	2000	0	BLOCKED	n/a	n/a	+	0	enthusiastic	At this moment	3	2	8	215	NONE	n/a	0	1419.17823612594	-0.12571182274725	0.000107023481277699	35.8384341829013	1633.12983770287	0	1314.64568949125	-0.157719840366349	0.000171267641099679	21.3716019302373	1328.24519600307	0	2	0	1	0	1	1
309.667372135028	6.02111750561744	panas_none	315.688489640646	59	5	10	10	n/a	n/a	n/a	n/a	n/a	n/a	n/a	n/a	2000	0	BLOCKED	n/a	n/a	+	0	excited	At this moment	3	2	8	215	NONE	n/a	0	-466.495992341518	1.39128392217219	-0.000259467502162773	24.6248621004289	1297.22971285893	0	1091.53466583686	-0.75502680411313	0.000562954934723023	12.4701781949043	923.341275941583	0	3	0	1	0	1	1
316.689348967411	14.4616806202978	panas_none	331.151029587708	60	5	10	10	n/a	n/a	n/a	n/a	n/a	n/a	n/a	n/a	2000	0	BLOCKED	n/a	n/a	+	0	irritable	At this moment	4	2	8	215	NONE	n/a	0.50936329588015	n/a	n/a	n/a	n/a	1780.58778625954	0.350499615680246	n/a	n/a	n/a	n/a	1472.48047337278	3	4	0	1	0	1	1
332.135267623693	2.51861410374937	reward_rtpj	334.653881727442	61	1	11	10	750	250	250	250	0	0	0	0	2000	0	BLOCKED	0.75	-1	4	1	ashamed	At this moment	5	2	8	215	RTPJ	590.799667552114	0	9534.29957245588	-6.71621905610071	0.00153039687445611	33.744172133365	2255.41323345818	0	953.604522444089	0.984559636001142	-6.88262793216817e-05	17.7105035608625	1731.07302075327	0	1	1	0	0	0	0
335.654730475701	2.51870402099189	reward_rtpj	338.173434496693	62	1	11	10	750	250	250	250	0	0	0	0	2000	0	BLOCKED	0.75	-1	1	1	attentive	At this moment	3	2	8	215	RTPJ	606.985829390585	0	10329.2633525897	-7.52215506330653	0.00175005060425054	26.3668871302233	2334.33957553059	0	1582.62844141221	0.864809444797939	-0.000216781420561391	16.3804143836214	2130.809377402	0	2	1	0	0	0	0
339.157605182901	2.51864619186523	reward_rtpj	341.676251374766	63	1	11	10	750	250	250	250	0	0	0	0	2000	0	BLOCKED	0.75	1	7	1	proud	At this moment	2	2	8	215	RTPJ	556.576106481254	0	10679.9343809079	-7.51425982864304	0.00170573527143115	25.3763973351073	2503.59550561798	0	1626.63511550113	0.680095445331099	-1.76893281480195e-05	26.6726294079139	2189.12836279785	0	3	1	0	0	0	0
342.660564165473	2.51854957490417	reward_rtpj	345.179113740377	64	1	11	10	750	250	250	250	0	0	0	0	2000	0	BLOCKED	0.75	-1	0	1	jittery	At this moment	2	2	8	215	RTPJ	573.715743735433	0	12907.5415664069	-9.7462889841969	0.00223003593006792	25.2226554534567	2378.14481897628	0	1880.93846875401	0.52690214726497	-2.87776503257955e-05	37.4712728260444	2303.42582628747	0	4	1	0	0	0	0
346.163213198014	2.51884542027119	reward_rtpj	348.682058618285	65	1	11	10	750	250	250	250	0	0	0	0	2000	0	BLOCKED	0.75	1	4	-1	interested	At this moment	5	2	8	215	RTPJ	439.741165280342	0	2762.82025146033	-0.707092897697065	0.000238492820412132	17.5650830530067	2342.3720349563	0	1446.87460570905	0.951415207642562	-0.000199651656712214	45.0248676933581	2087.14527286703	0	5	1	0	0	0	0
349.682848126955	2.51863314504175	reward_rtpj	352.201481271997	66	1	11	10	750	250	250	250	0	0	0	0	2000	0	BLOCKED	0.75	1	0	-1	strong	At this moment	5	2	8	215	RTPJ	773.119751080871	0	2533.83240985339	0.0205990281440541	-2.55225318713134e-05	32.8770773160049	2462.734082397	0	1472.30072281162	0.636101172427115	-1.42421180120916e-05	27.5284418091634	2001.0092236741	0	6	1	0	0	0	0
353.187406931244	2.51699594596028	reward_rtpj	355.704402877204	67	1	11	10	750	250	250	250	0	0	0	0	2000	0	BLOCKED	0.75	-1	3	1	irritable	At this moment	3	2	8	215	RTPJ	488.034130468965	0	8994.56051844696	-6.35915002555826	0.00145759120998706	41.4369585213069	2144.61922596754	0.239815526518063	1239.47187387974	1.20679002159264	-0.000346712837594849	25.0358484862619	1990.86450960566	1	7	1	0	0	0	0
356.705149719261	2.51877278123794	reward_rtpj	359.223922500499	68	1	11	10	750	250	250	250	0	0	0	0	2000	0	BLOCKED	0.75	1	7	1	excited	At this moment	3	2	8	215	RTPJ	1424.48344305903	0	9834.32955592015	-7.13717186187023	0.00164163053486157	31.0283328695231	2169.81897627965	0	1320.97564567722	0.748641909338421	-8.43287895636271e-05	49.4583309519315	1886.16910069178	0	8	1	0	0	0	0
360.224640780605	6.02170531756428	panas_none	366.24634609817	69	5	12	10	n/a	n/a	n/a	n/a	n/a	n/a	n/a	n/a	2000	0	BLOCKED	n/a	n/a	+	0	active	At this moment	4	2	8	215	NONE	n/a	0	1209.67418788611	-0.294714738206653	0.00017556815078119	14.1162460598491	1374.38826466916	0	1956.36948375956	-0.29787586124172	-9.30380814103347e-05	77.3056732897933	1626.61798616449	0	1	0	1	0	1	0
367.247120796941	6.02148599001021	panas_none	373.268606786951	70	5	12	10	n/a	n/a	n/a	n/a	n/a	n/a	n/a	n/a	2000	0	BLOCKED	n/a	n/a	+	0	nervous	At this moment	1	2	8	215	NONE	n/a	0	636.132113646951	0.453453145760828	-2.97631828693267e-05	13.2777378927184	1455.17852684145	0	882.499763110319	0.22424098848594	5.65874280305476e-05	14.5785405428683	1121.63412759416	0	2	0	1	0	1	0
374.269418510467	6.02167111375184	panas_none	380.291089624219	71	5	12	10	n/a	n/a	n/a	n/a	n/a	n/a	n/a	n/a	2000	0	BLOCKED	n/a	n/a	+	0	jittery	At this moment	2	2	8	215	NONE	n/a	0	3877.85437275725	-2.18059867560732	0.000589300615784081	24.5761220074727	1928.09737827715	0	1807.7657390448	-0.0810749008608958	4.9172029447535e-05	27.5502692691892	1781.45272867025	0	3	0	1	0	1	0
381.29175536444	8.87398221612722	panas_none	390.165737580568	72	5	12	10	n/a	n/a	n/a	n/a	n/a	n/a	n/a	n/a	2000	0	BLOCKED	n/a	n/a	+	0	strong	At this moment	4	2	8	215	NONE	n/a	0	1395.93740879803	1.07188080823402	-0.000236598652101425	19.2723214825792	2590.23595505618	0	2049.20638693038	0.136044941385035	0.000106725884496837	34.2572546969081	2257.82551883167	0	4	0	1	0	1	0
391.149810591966	2.51864337093383	punish_rtpj	393.6684539629	73	3	13	10	750	250	250	250	0	0	0	0	2000	0	BLOCKED	0.25	-1	10	-1	scared	At this moment	3	2	8	215	RTPJ	290.685878165066	0	4281.43537069666	-1.74644955026872	0.000431140941214556	26.7851502638089	2538.68414481898	0	1196.41663537112	0.960778836855161	-9.65593816876344e-05	20.0803229389332	1929.87778631822	0	1	0	0	1	0	0
394.652679657303	2.51874492451549	punish_rtpj	397.171424581818	74	3	13	10	750	250	250	250	0	0	0	0	2000	0	BLOCKED	0.25	1	4	-1	interested	At this moment	3	2	8	215	RTPJ	639.642362087965	0.387016229712859	n/a	n/a	n/a	n/a	2280.10794297352	0	1116.43080866705	1.13472578956718	-0.00026421608613252	26.8574219467404	1861.53651037663	1	2	0	0	1	0	0
398.172094200827	2.51874950854477	punish_rtpj	400.690843709372	75	3	13	10	750	250	250	250	0	0	0	0	2000	0	BLOCKED	0.25	-1	10	-1	jittery	At this moment	1	2	8	215	RTPJ	773.670538283885	0	4968.9159768231	-2.2912557211956	0.000524297988319183	31.3372733735782	2496.734082397	0	1946.87047718143	0.612221211615053	-0.00021027702600765	29.7161954811597	2286.56110684089	0	3	0	0	1	0	0
401.700099896297	2.51031950241327	punish_rtpj	404.21041939871	76	3	13	10	750	250	250	250	0	0	0	0	2000	0	BLOCKED	0.25	-1	3	1	attentive	At this moment	2	2	8	215	RTPJ	414.7029151842	0	11779.8073726042	-8.75910549011911	0.0020055130154866	28.0823276995241	2328.97253433208	0	1257.38398918107	1.0354897219571	-0.000178172037952738	20.5862273700957	1983.92006149116	0	4	0	0	1	0	0
405.211221601568	2.51869873175025	punish_rtpj	407.729920333318	77	3	13	10	750	250	250	250	0	0	0	0	2000	0	BLOCKED	0.25	-1	3	1	hostile	At this moment	1	2	8	215	RTPJ	556.890287920833	0	12288.1962286913	-9.34356749587048	0.00215870865824201	31.1129471952787	2293.08114856429	0	1599.72214450468	0.942183784669406	-0.000299711622718248	35.4221540261561	2142.29362029208	0	5	0	0	1	0	0
408.719068908699	2.51361188402029	punish_rtpj	411.232680792719	78	3	13	10	750	250	250	250	0	0	0	0	2000	0	BLOCKED	0.25	1	1	-1	strong	At this moment	5	2	8	215	RTPJ	535.629619941115	0.751560549313358	n/a	n/a	n/a	n/a	2568.00502512563	0	1741.29565315724	0.318429266324986	0.000148743720123573	36.1063042636109	2144.92621060723	1	6	0	0	1	0	0
412.23374322667	2.51854216995832	punish_rtpj	414.752285396628	79	3	13	10	750	250	250	250	0	0	0	0	2000	0	BLOCKED	0.25	-1	8	-1	upset	At this moment	3	2	8	215	RTPJ	573.278146483004	0.426966292134831	n/a	n/a	n/a	n/a	2232.90196078431	0	1270.81132201311	0.0113641751028087	0.000318185190898113	55.9818194337379	1555.83320522675	1	7	0	0	1	0	0
415.736416589767	2.51877383908629	punish_rtpj	418.255190428853	80	3	13	10	750	250	250	250	0	0	0	0	2000	0	BLOCKED	0.25	1	1	-1	irritable	At this moment	2	2	8	215	RTPJ	1174.60271564126	0	5519.09143228562	-3.23155653625663	0.00077351361853729	25.1908897908884	2185.1822721598	0	1318.19818994956	0.74366992469311	-0.000132475907740512	26.9019752719661	1836.08993082244	0	8	0	0	1	0	0
419.2391650602	6.03833401329814	panas_none	425.277499073498	81	5	14	10	n/a	n/a	n/a	n/a	n/a	n/a	n/a	n/a	2000	0	BLOCKED	n/a	n/a	+	0	ashamed	At this moment	1	2	8	215	NONE	n/a	0	346.16515376795	0.205974639890391	9.47629393395381e-05	13.6544450494234	1201.14731585518	0	1932.34637166995	-1.14138503058694	0.000397019971098885	86.0975865104847	1309.18601076095	0	1	0	1	0	0	0
426.278316086262	6.02197789023819	panas_none	432.300293976501	82	5	14	10	n/a	n/a	n/a	n/a	n/a	n/a	n/a	n/a	2000	0	BLOCKED	n/a	n/a	+	0	determined	At this moment	4	2	8	215	NONE	n/a	0	150.063618319629	0.164833947454309	0.000106267591800281	8.45424591937666	970.446941323346	0	1488.50142933731	-0.661551466796512	8.75289313340758e-05	12.6162296661973	1001.64411990776	0	2	0	1	0	0	0
433.300799628764	6.02147752720867	panas_none	439.322277155973	83	5	14	10	n/a	n/a	n/a	n/a	n/a	n/a	n/a	n/a	2000	0	BLOCKED	n/a	n/a	+	0	jittery	At this moment	2	2	8	215	NONE	n/a	0.153558052434457	-2.40757204922642	0.918362938381761	-0.000186813335607448	17.7007309204471	1086.03687315634	0	1288.23923997997	-0.310648388785258	3.29565110170402e-05	30.6852341734097	1053.11606456572	3	3	0	1	0	0	0
440.306370266512	6.9222691868469	panas_none	447.228639453359	84	5	14	10	n/a	n/a	n/a	n/a	n/a	n/a	n/a	n/a	2000	0	BLOCKED	n/a	n/a	+	0	irritable	At this moment	5	2	8	215	NONE	n/a	0	5376.12151672547	-3.00206081533348	0.000664181942924755	16.0590194914248	2036.21098626717	0.342813220599539	n/a	n/a	n/a	n/a	1809.71111111111	2	4	0	1	0	0	0
448.2127410267	2.5187692550719	punish_vlpfc	450.731510281771	85	4	15	10	0	0	0	0	250	250	250	750	2000	0	BLOCKED	0.25	-1	10	-1	interested	At this moment	5	2	8	215	VLPFC	840.409938000143	0	842.932145855488	1.15572074965211	-0.000199352291805067	16.6479353184302	2380.07990012484	0.262106072252114	n/a	n/a	n/a	n/a	1930.04895833333	1	1	0	0	1	0	0
451.715759248868	2.51851748678831	punish_vlpfc	454.234276735656	86	4	15	10	0	0	0	0	250	250	250	750	2000	0	BLOCKED	0.25	1	0	-1	determined	At this moment	1	2	8	215	VLPFC	689.722035825253	0	4418.79928751923	-1.70108095754127	0.0003807188285126	21.7840556659093	2545.32833957553	0	1633.61200436166	0.85357199618481	-0.000167280497971512	17.5992266479966	2214.24365872406	0	2	0	0	1	0	0
455.235084227771	2.51881121645869	punish_vlpfc	457.753895444229	87	4	15	10	0	0	0	0	250	250	250	750	2000	0	BLOCKED	0.25	-1	3	1	afraid	At this moment	4	2	8	215	VLPFC	857.231515042484	0	6976.55499147529	-4.03963833395406	0.000907276196578704	35.3706636469089	2542.03495630462	0	1901.43863360448	0.626293532070314	-0.000106007406473629	17.6610421866842	2342.3996925442	0	3	0	0	1	0	0
458.754675784856	2.518732230328	punish_vlpfc	461.273408015184	88	4	15	10	0	0	0	0	250	250	250	750	2000	0	BLOCKED	0.25	-1	7	-1	strong	At this moment	4	2	8	215	VLPFC	823.507611766458	0.500624219725343	n/a	n/a	n/a	n/a	2258.745	0.286702536510377	n/a	n/a	n/a	n/a	1821.59698275862	2	4	0	0	1	0	0
462.274226791032	2.51865641774981	punish_vlpfc	464.792883208781	89	4	15	10	0	0	0	0	250	250	250	750	2000	0	BLOCKED	0.25	-1	7	-1	nervous	At this moment	1	2	8	215	VLPFC	1273.77191556245	0	5553.14964072117	-2.8039883498743	0.000654054378584226	24.7075303340856	2583.80524344569	0	1788.04729770922	0.769756027853937	-0.000158314527255526	15.445650780809	2305.66026133743	0	5	0	0	1	0	0
465.777012991458	2.51863138195876	punish_vlpfc	468.295644373417	90	4	15	10	0	0	0	0	250	250	250	750	2000	0	BLOCKED	0.25	-1	2	1	active	At this moment	3	2	8	215	VLPFC	606.756275951862	0	8571.80027887837	-5.78880711788779	0.00132387543511171	31.408498131564	2323.37328339576	0.275172943889316	n/a	n/a	n/a	n/a	1949.16224814422	1	6	0	0	1	0	0
469.296676482335	2.51860775665193	punish_vlpfc	471.815284238987	91	4	15	10	0	0	0	0	250	250	250	750	2000	0	BLOCKED	0.25	-1	8	-1	proud	At this moment	3	2	8	215	VLPFC	606.351472049952	0.560549313358302	n/a	n/a	n/a	n/a	2437.62215909091	0	1657.18152915498	0.772008481884184	-0.00014461880075242	18.954242175085	2188.45503458878	1	7	0	0	1	0	0
472.799426363237	2.51867898520828	punish_vlpfc	475.318105348445	92	4	15	10	0	0	0	0	250	250	250	750	2000	0	BLOCKED	0.25	1	1	-1	enthusiastic	At this moment	3	2	8	215	VLPFC	1106.84249073267	0	6260.08086689378	-3.82476836051288	0.000914176739943616	19.6797105484991	2307.30461922597	0.256725595695619	n/a	n/a	n/a	n/a	1802.09927611169	1	8	0	0	1	0	0
476.318881457686	6.02163444161414	panas_none	482.340515899301	93	5	16	10	n/a	n/a	n/a	n/a	n/a	n/a	n/a	n/a	2000	0	BLOCKED	n/a	n/a	+	0	afraid	At this moment	1	2	8	215	NONE	n/a	0	1154.88247636546	-0.45994192123053	0.000227878280882778	13.0869686590522	1206.20599250936	0	1895.12174977246	-0.872256415882882	0.000218121485361866	51.4496757971628	1347.40199846272	0	1	0	1	0	0	1
483.324811059184	6.02136186895524	panas_none	489.34617292814	94	5	16	10	n/a	n/a	n/a	n/a	n/a	n/a	n/a	n/a	2000	0	BLOCKED	n/a	n/a	+	0	distressed	At this moment	3	2	8	215	NONE	n/a	0	2805.74676118485	-1.54261974275184	0.00040331664845175	24.4067108852556	1366.48938826467	0	1493.89121393532	-0.343013899821965	8.96549650283776e-05	19.4563307028805	1279.96541122214	0	2	0	1	0	0	1
490.33025687065	6.02163973086328	panas_none	496.351896601513	95	5	16	10	n/a	n/a	n/a	n/a	n/a	n/a	n/a	n/a	2000	0	BLOCKED	n/a	n/a	+	0	active	At this moment	3	2	8	215	NONE	n/a	0	1914.55996901492	-0.106366555464104	-1.84877655605753e-05	35.6657432971626	1608.3720349563	0	2037.0932208825	0.385314910800371	-0.000517391830300892	29.2419672931945	1922.02305918524	0	3	0	1	0	0	1
497.338230943449	13.8423676656187	panas_none	511.180598609067	96	5	16	10	n/a	n/a	n/a	n/a	n/a	n/a	n/a	n/a	2000	0	BLOCKED	n/a	n/a	+	0	interested	At this moment	4	2	8	215	NONE	n/a	0	2411.9606051853	-0.176027432756408	3.87293806657562e-05	18.5084539566853	2214.9950062422	0.299769408147579	n/a	n/a	n/a	n/a	1934.17563117453	1	4	0	1	0	0	1
