onset	duration	trial_type	offset	trial	block	blockCntr	frequency	amplitude_1	amplitude_2	amplitude_3	amplitude_4	amplitude_5	amplitude_6	amplitude_7	amplitude_8	transition	sham	mode	rewardFraction	guess	outcome	correct	word	when	answer	runNr	scanNr	subjectNr	target	reactionTime	outcomeEyeClosed	outcomeParms_1	outcomeParms_2	outcomeParms_3	outcomeSigma	outcomePupilArea	guessEyeClosed	guessParms_1	guessParms_2	guessParms_3	guessSigma	guessPupilArea	nrBlinks	trialInBlock	isReward	isPanas	isPunish	beforePanasReward	beforePanasVLPFC
20.2424008414848	2.51492891772371	reward_vlpfc	22.7573297592085	1	2	1	10	0	0	0	0	250	250	250	750	500	0	BLOCKED	0.75	1	4	-1	strong	At this moment	1	3	12	203	VLPFC	436.682171232067	0.375780274656679	n/a	n/a	n/a	n/a	749.964	0.461183704842429	n/a	n/a	n/a	n/a	691.666191155492	4	1	1	0	0	0	0
23.7414313213369	2.51885989085119	reward_vlpfc	26.2602912121881	2	2	1	10	0	0	0	0	250	250	250	750	500	0	BLOCKED	0.75	1	7	1	upset	At this moment	5	3	12	203	VLPFC	391.795803788118	0.374531835205993	n/a	n/a	n/a	n/a	727.788423153693	0.230591852421214	371.820794614196	0.772689162975312	-0.000362335902230088	33.0283018992688	716.506493506493	2	2	1	0	0	0	0
27.2609410851225	2.51881122971978	reward_vlpfc	29.7797523148423	3	2	1	10	0	0	0	0	250	250	250	750	500	0	BLOCKED	0.75	-1	1	1	jittery	At this moment	4	3	12	203	VLPFC	357.114874473773	0.374531835205993	n/a	n/a	n/a	n/a	645.459081836327	0.230591852421214	457.587126874171	0.269430657419538	-8.00418090871537e-05	13.4666981388087	620.488511488511	3	3	1	0	0	0	0
30.7805792014571	2.5186853454886	reward_vlpfc	33.2992645469457	4	2	1	10	0	0	0	0	250	250	250	750	500	0	BLOCKED	0.75	1	1	-1	alert	At this moment	2	3	12	203	VLPFC	724.046250641346	0.374531835205993	n/a	n/a	n/a	n/a	671.860279441118	0.230591852421214	444.224480399237	0.184103632282012	-2.33994865124599e-05	11.3840315849304	567.022977022977	2	4	1	0	0	0	0
34.3001069487035	2.51870791297033	reward_vlpfc	36.8188148616739	5	2	1	10	0	0	0	0	250	250	250	750	500	0	BLOCKED	0.75	1	7	1	attentive	At this moment	1	3	12	203	VLPFC	390.980200914666	0.374531835205993	n/a	n/a	n/a	n/a	707.403193612774	0.571867794004612	n/a	n/a	n/a	n/a	569.276481149013	4	5	1	0	0	0	0
37.8195574728511	2.51902279985602	reward_vlpfc	40.3385802727072	6	2	1	10	0	0	0	0	250	250	250	750	500	0	BLOCKED	0.75	-1	4	1	nervous	At this moment	4	3	12	203	VLPFC	307.979826082475	0.374531835205993	n/a	n/a	n/a	n/a	781.994011976048	0.230591852421214	463.379574098976	0.38276378956513	-9.80361203857002e-05	17.9813458383596	730.577422577423	2	6	1	0	0	0	0
41.3224737908682	2.51872201764584	reward_vlpfc	43.841195808514	7	2	1	10	0	0	0	0	250	250	250	750	500	0	BLOCKED	0.75	1	8	1	proud	At this moment	1	3	12	203	VLPFC	490.08353141509	0.374531835205993	n/a	n/a	n/a	n/a	773.916167664671	0	344.372732656611	1.07751704869137	-0.000433352005182809	23.6780092503678	887.036126056879	1	7	1	0	0	0	0
44.8420297474666	2.51868851904106	reward_vlpfc	47.3607182665076	8	2	1	10	0	0	0	0	250	250	250	750	500	0	BLOCKED	0.75	-1	3	1	enthusiastic	At this moment	1	3	12	203	VLPFC	474.118096333928	0	2756.56488790688	-1.73881479502758	0.000326946847274272	12.0649782584665	564.823970037453	0.461183704842429	n/a	n/a	n/a	n/a	762.338088445078	2	8	1	0	0	0	0
48.3614689878738	6.02160906845983	panas_none	54.3830780563336	9	5	2	10	n/a	n/a	n/a	n/a	n/a	n/a	n/a	n/a	500	0	BLOCKED	n/a	n/a	+	0	scared	At this moment	1	3	12	203	NONE	n/a	0.420724094881398	n/a	n/a	n/a	n/a	634.650862068965	0.248270561106841	409.547564723223	0.198464607856312	-0.000123620521134049	41.0423385414814	468.312883435583	12	1	0	1	0	1	1
55.367234274081	6.03825999078247	panas_none	61.4054942648634	10	5	2	10	n/a	n/a	n/a	n/a	n/a	n/a	n/a	n/a	500	0	BLOCKED	n/a	n/a	+	0	irritable	At this moment	1	3	12	203	NONE	n/a	1	n/a	n/a	n/a	n/a	n/a	1	n/a	n/a	n/a	n/a	n/a	7	2	0	1	0	1	1
62.4062386391247	6.02159179023188	panas_none	68.4278304293565	11	5	2	10	n/a	n/a	n/a	n/a	n/a	n/a	n/a	n/a	500	0	BLOCKED	n/a	n/a	+	0	excited	At this moment	4	3	12	203	NONE	n/a	0.285892634207241	n/a	n/a	n/a	n/a	467.687062937063	0.286702536510377	n/a	n/a	n/a	n/a	405.914870689655	7	3	0	1	0	1	1
69.4286065391395	8.40690614290349	panas_none	77.835512682043	12	5	2	10	n/a	n/a	n/a	n/a	n/a	n/a	n/a	n/a	500	0	BLOCKED	n/a	n/a	+	0	upset	At this moment	1	3	12	203	NONE	n/a	0.374531835205993	n/a	n/a	n/a	n/a	743.860279441118	0.617217524980784	n/a	n/a	n/a	n/a	811.395582329317	11	4	0	1	0	1	1
78.8363057174357	2.51870791297034	punish_rtpj	81.355013630406	13	3	3	10	750	250	250	250	0	0	0	0	500	0	BLOCKED	0.25	-1	1	1	scared	At this moment	1	3	12	203	RTPJ	290.057367242873	0.374531835205993	n/a	n/a	n/a	n/a	865.974051896208	0.681014604150653	n/a	n/a	n/a	n/a	763.893975903614	4	1	0	0	1	0	0
82.355756946817	2.51876327382215	punish_rtpj	84.8745202206392	14	3	3	10	750	250	250	250	0	0	0	0	500	0	BLOCKED	0.25	1	2	-1	strong	At this moment	4	3	12	203	RTPJ	273.907160908915	0.374531835205993	n/a	n/a	n/a	n/a	938.083832335329	0.230591852421214	594.86346534798	0.388386338656126	-0.000197204167414405	29.2887009066607	760.89010989011	2	2	0	0	1	0	0
85.8754934432646	2.51862328491546	punish_rtpj	88.3941167281801	15	3	3	10	750	250	250	250	0	0	0	0	500	0	BLOCKED	0.25	1	4	-1	inspired	At this moment	2	3	12	203	RTPJ	340.954794867896	0	2089.18768367022	-0.942346872194443	0.000201395451515877	12.4155060406662	1008.85393258427	0.461183704842429	n/a	n/a	n/a	n/a	786.435092724679	2	3	0	0	1	0	0
89.3948967167493	2.51871637577563	punish_rtpj	91.9136130925249	16	3	3	10	750	250	250	250	0	0	0	0	500	0	BLOCKED	0.25	1	2	-1	excited	At this moment	4	3	12	203	RTPJ	656.850870206021	0	1953.75143757069	-1.16703061977019	0.000312548982312541	10.1268840734442	897.707865168539	0.461183704842429	n/a	n/a	n/a	n/a	830.748930099857	3	4	0	0	1	0	0
92.9145475272918	2.51858132350537	punish_rtpj	95.4331288507972	17	3	3	10	750	250	250	250	0	0	0	0	500	0	BLOCKED	0.25	-1	10	-1	determined	At this moment	5	3	12	203	RTPJ	673.92740111798	0.741573033707865	n/a	n/a	n/a	n/a	911.386473429952	0.230591852421214	533.238098723348	0.27593611105381	-3.9701288784855e-05	15.7987080003691	751.737262737263	3	5	0	0	1	0	0
96.4506338112354	2.50204359120596	punish_rtpj	98.9526774024414	18	3	3	10	750	250	250	250	0	0	0	0	500	0	BLOCKED	0.25	1	4	-1	upset	At this moment	4	3	12	203	RTPJ	473.428025073372	0.374531835205993	n/a	n/a	n/a	n/a	1012.21157684631	0.230591852421214	517.945020834215	0.522098360982853	-0.000219747913999325	21.9769185634951	790.177822177822	2	6	0	0	1	0	0
99.9534700852167	2.51872201764584	punish_rtpj	102.472192102863	19	3	3	10	750	250	250	250	0	0	0	0	500	0	BLOCKED	0.25	-1	6	-1	ashamed	At this moment	3	3	12	203	RTPJ	289.886348049156	0	1417.02971679684	-0.557721365396228	0.000146318343729475	10.9582083423438	899.008739076155	0.461183704842429	n/a	n/a	n/a	n/a	799.587731811698	3	7	0	0	1	0	0
103.472936829742	2.51878584130296	punish_rtpj	105.991722671045	20	3	3	10	750	250	250	250	0	0	0	0	500	0	BLOCKED	0.25	-1	2	1	proud	At this moment	5	3	12	203	RTPJ	773.890058988705	0	1106.07237933097	-0.132078848450968	2.83003538170448e-06	8.9148356024852	841.349563046192	0.461183704842429	n/a	n/a	n/a	n/a	742.98002853067	2	8	0	0	1	0	0
106.992440246424	6.02164291968103	panas_none	113.014083166105	21	5	4	10	n/a	n/a	n/a	n/a	n/a	n/a	n/a	n/a	500	0	BLOCKED	n/a	n/a	+	0	interested	At this moment	4	3	12	203	NONE	n/a	0.132334581772784	-6499.49034966274	6.44556502818959	-0.00143237566979144	15.309834284251	676.339568345324	0.182167563412759	550.072170246194	0.2517082946601	-0.000179101011953523	14.3832448243809	613.976503759398	8	1	0	1	0	0	0
114.014877964583	6.02179172401037	panas_none	120.036669688594	22	5	4	10	n/a	n/a	n/a	n/a	n/a	n/a	n/a	n/a	500	0	BLOCKED	n/a	n/a	+	0	upset	At this moment	2	3	12	203	NONE	n/a	0.0187265917602996	-105.307259025701	0.567958039048282	-0.000111121335563207	9.81673860789016	592.554707379135	0.412759415833974	n/a	n/a	n/a	n/a	569.157068062827	8	2	0	1	0	0	0
121.020598115827	6.02156887013372	panas_none	127.042166985961	23	5	4	10	n/a	n/a	n/a	n/a	n/a	n/a	n/a	n/a	500	0	BLOCKED	n/a	n/a	+	0	strong	At this moment	3	3	12	203	NONE	n/a	0.373283395755306	n/a	n/a	n/a	n/a	524.075697211155	0.519600307455803	n/a	n/a	n/a	n/a	513.7344	8	3	0	1	0	0	0
128.026204724432	14.4786054989193	panas_none	142.504810223351	24	5	4	10	n/a	n/a	n/a	n/a	n/a	n/a	n/a	n/a	500	0	BLOCKED	n/a	n/a	+	0	irritable	At this moment	1	3	12	203	NONE	n/a	0.410736579275905	n/a	n/a	n/a	n/a	561.207627118644	0.461183704842429	n/a	n/a	n/a	n/a	527.798858773181	22	4	0	1	0	0	0
143.50580460299	2.51846531254796	reward_vlpfc	146.024269915538	25	2	5	10	0	0	0	0	250	250	250	750	500	0	BLOCKED	0.75	1	9	1	alert	At this moment	5	3	12	203	VLPFC	389.767551418394	0.374531835205993	n/a	n/a	n/a	n/a	612.540918163673	0.500384319754035	n/a	n/a	n/a	n/a	626.441538461538	3	1	1	0	0	0	0
147.025111964679	2.51868464025483	reward_vlpfc	149.543796604934	26	2	5	10	0	0	0	0	250	250	250	750	500	0	BLOCKED	0.75	-1	0	1	interested	At this moment	2	3	12	203	VLPFC	322.857085430995	0	4559.68910750767	-3.62705110568645	0.000829971359856566	9.26584533735632	640.978776529338	0.230591852421214	475.283216767013	0.0351600774023084	5.52760740608373e-05	20.1533502669815	560.66033966034	1	2	1	0	0	0	0
150.544562488827	2.51867758791707	reward_vlpfc	153.063240076744	27	2	5	10	0	0	0	0	250	250	250	750	500	0	BLOCKED	0.75	1	4	-1	excited	At this moment	5	3	12	203	VLPFC	457.03486570064	0.543071161048689	n/a	n/a	n/a	n/a	733.390710382514	0.461183704842429	n/a	n/a	n/a	n/a	801.793152639087	5	3	1	0	0	0	0
154.064320494905	2.51855558247215	reward_vlpfc	156.582876077377	28	2	5	10	0	0	0	0	250	250	250	750	500	0	BLOCKED	0.75	-1	2	1	scared	At this moment	3	3	12	203	VLPFC	256.828161677346	0.374531835205993	n/a	n/a	n/a	n/a	681.690618762475	0.230591852421214	430.804660473216	0.476177210847241	-0.000224175531173252	20.1280641151731	646.993006993007	2	4	1	0	0	0	0
157.583727647174	2.51867794053442	reward_vlpfc	160.102405587709	29	2	5	10	0	0	0	0	250	250	250	750	500	0	BLOCKED	0.75	1	7	1	inspired	At this moment	5	3	12	203	VLPFC	273.160318328068	0.374531835205993	n/a	n/a	n/a	n/a	606.035928143713	0	451.142987833207	0.0769263571614025	-2.69379959926324e-05	34.2371505784927	492.499615680246	1	5	1	0	0	0	0
161.103135504678	2.51878478345276	reward_vlpfc	163.621920288131	30	2	5	10	0	0	0	0	250	250	250	750	500	0	BLOCKED	0.75	-1	0	1	alert	At this moment	1	3	12	203	VLPFC	357.750290115364	0.581772784019975	n/a	n/a	n/a	n/a	431.268656716418	0	339.765947517339	0.43673310647039	-0.000214790771463168	33.5156495503533	524.7809377402	1	6	1	0	0	0	0
164.606255635259	2.51848012245631	reward_vlpfc	167.124735757715	31	2	5	10	0	0	0	0	250	250	250	750	500	0	BLOCKED	0.75	1	6	1	hostile	At this moment	5	3	12	203	VLPFC	139.355606731959	0.374531835205993	n/a	n/a	n/a	n/a	883.520958083832	0.5695618754804	n/a	n/a	n/a	n/a	551.066071428571	5	7	1	0	0	0	0
168.125563702182	2.51872413334715	reward_vlpfc	170.644287835529	32	2	5	10	0	0	0	0	250	250	250	750	500	0	BLOCKED	0.75	1	4	-1	irritable	At this moment	2	3	12	203	VLPFC	940.312891073525	0.305867665418227	n/a	n/a	n/a	n/a	862.58273381295	0.461183704842429	n/a	n/a	n/a	n/a	736.543509272468	5	8	1	0	0	0	0
171.645127063734	6.02185096364934	panas_none	177.666978027384	33	5	6	10	n/a	n/a	n/a	n/a	n/a	n/a	n/a	n/a	500	0	BLOCKED	n/a	n/a	+	0	ashamed	At this moment	1	3	12	203	NONE	n/a	0.233458177278402	-2598.52944431093	2.94272619738365	-0.000665484799202857	9.37305484081046	632.703583061889	0.229823212913144	648.162437134138	0.0867731260539901	-0.000131277478797682	11.453259491106	579.61377245509	6	1	0	1	0	1	1
178.667530578055	6.02148917871713	panas_none	184.689019756773	34	5	6	10	n/a	n/a	n/a	n/a	n/a	n/a	n/a	n/a	500	0	BLOCKED	n/a	n/a	+	0	alert	At this moment	4	3	12	203	NONE	n/a	0.373283395755306	n/a	n/a	n/a	n/a	557.181274900398	0.105303612605688	591.496762874893	-0.132305441544143	9.19627609871129e-05	6.07402709458222	554.758591065292	4	2	0	1	0	1	1
185.689786345898	6.02162881500647	panas_none	191.711415160905	35	5	6	10	n/a	n/a	n/a	n/a	n/a	n/a	n/a	n/a	500	0	BLOCKED	n/a	n/a	+	0	proud	At this moment	3	3	12	203	NONE	n/a	0.0224719101123595	-11.524188313531	0.604141654929883	-0.000145816176389604	11.1069401812998	607.040868454662	0.292851652574942	n/a	n/a	n/a	n/a	637.642391304348	8	3	0	1	0	1	1
192.712253683877	13.8445964458333	panas_none	206.556850129711	36	5	6	10	n/a	n/a	n/a	n/a	n/a	n/a	n/a	n/a	500	0	BLOCKED	n/a	n/a	+	0	distressed	At this moment	4	3	12	203	NONE	n/a	0.465667915106117	n/a	n/a	n/a	n/a	634.098130841121	0.770945426594927	n/a	n/a	n/a	n/a	511.104026845638	18	4	0	1	0	1	1
207.557591683037	2.51867582483311	reward_rtpj	210.07626750787	37	1	7	10	750	250	250	250	0	0	0	0	500	0	BLOCKED	0.75	-1	2	1	scared	At this moment	2	3	12	203	RTPJ	361.71723016724	0.749063670411985	n/a	n/a	n/a	n/a	633.915422885572	0	372.502796422693	0.281856372551523	-0.000102097728812616	17.1117793040204	524.074558032283	2	1	1	0	0	0	0
211.077217457781	2.51866101492288	reward_rtpj	213.595878472704	38	1	7	10	750	250	250	250	0	0	0	0	500	0	BLOCKED	0.75	1	7	1	hostile	At this moment	1	3	12	203	RTPJ	289.63775313925	0.374531835205993	n/a	n/a	n/a	n/a	629.820359281437	0	447.152389770041	0.176302651815077	-8.13575444094352e-05	10.1504642683345	527.421983089931	1	2	1	0	0	0	0
214.596709943337	2.5187065025037	reward_rtpj	217.115416445841	39	1	7	10	750	250	250	250	0	0	0	0	500	0	BLOCKED	0.75	-1	4	1	interested	At this moment	2	3	12	203	RTPJ	491.502109178342	0	2815.07742085906	-2.10358970047598	0.000474739174247906	6.62728123127191	510.94506866417	0	411.850323523354	0.233018482711582	-9.8606712558029e-05	11.1502014141975	524.813989239047	0	3	1	0	0	0	0
218.116184445434	2.51878795700429	reward_rtpj	220.634972402439	40	1	7	10	750	250	250	250	0	0	0	0	500	0	BLOCKED	0.75	1	10	1	determined	At this moment	3	3	12	203	RTPJ	440.342334584333	0.374531835205993	n/a	n/a	n/a	n/a	487.099800399202	0.048424289008455	473.03087218639	-0.0217484835940289	1.81831251949835e-05	8.58005312658518	467.854604200323	2	4	1	0	0	0	0
221.635763322131	2.5186797036184	reward_rtpj	224.154443025749	41	1	7	10	750	250	250	250	0	0	0	0	500	0	BLOCKED	0.75	-1	10	-1	upset	At this moment	2	3	12	203	RTPJ	356.721001403406	0.374531835205993	n/a	n/a	n/a	n/a	528.534930139721	0	361.044194755849	0.317722122881064	-0.000126705874234403	12.6266436687889	523.881629515757	1	5	1	0	0	0	0
225.155250165818	2.51872448596359	reward_rtpj	227.673974651782	42	1	7	10	750	250	250	250	0	0	0	0	500	0	BLOCKED	0.75	-1	3	1	attentive	At this moment	1	3	12	203	RTPJ	289.891637302004	0.446941323345818	n/a	n/a	n/a	n/a	678.182844243792	0	677.458898765682	-0.46918672691586	0.000308700953698707	29.7940451481352	544.455034588778	1	6	1	0	0	0	0
228.674813527372	2.51884261262325	reward_rtpj	231.193656139995	43	1	7	10	750	250	250	250	0	0	0	0	500	0	BLOCKED	0.75	-1	6	-1	hostile	At this moment	3	3	12	203	RTPJ	573.482715954073	0.583021223470662	n/a	n/a	n/a	n/a	821.359281437126	0.230591852421214	618.17985459617	-0.0418264214329588	0.000113066769906332	14.198296636708	691.706293706294	2	7	1	0	0	0	0
232.19426510937	2.51902844172625	reward_rtpj	234.713293551096	44	1	7	10	750	250	250	250	0	0	0	0	500	0	BLOCKED	0.75	-1	2	1	scared	At this moment	2	3	12	203	RTPJ	974.735352206975	0.374531835205993	n/a	n/a	n/a	n/a	728.295409181637	0.230591852421214	542.980240115136	0.0863060121813758	5.0179516864503e-05	10.3909854399967	636.549450549451	2	8	1	0	0	0	0
235.713946244965	6.02147366357315	panas_none	241.735419908538	45	5	8	10	n/a	n/a	n/a	n/a	n/a	n/a	n/a	n/a	500	0	BLOCKED	n/a	n/a	+	0	nervous	At this moment	1	3	12	203	NONE	n/a	0.779026217228464	n/a	n/a	n/a	n/a	514.039548022599	0.142198308993082	525.772261600502	0.256043390137783	-0.00021039124503836	18.5671805284233	577.48476702509	10	1	0	1	0	1	0
242.736169219437	6.02162387836913	panas_none	248.757793097806	46	5	8	10	n/a	n/a	n/a	n/a	n/a	n/a	n/a	n/a	500	0	BLOCKED	n/a	n/a	+	0	guilty	At this moment	1	3	12	203	NONE	n/a	0.302122347066167	n/a	n/a	n/a	n/a	615.001788908766	0.218293620292083	555.842205632188	0.0684154082088759	-3.38222290573351e-05	12.5236768457839	581.399213372665	6	2	0	1	0	1	0
249.758630210311	6.0214673164692	panas_none	255.78009752678	47	5	8	10	n/a	n/a	n/a	n/a	n/a	n/a	n/a	n/a	500	0	BLOCKED	n/a	n/a	+	0	alert	At this moment	3	3	12	203	NONE	n/a	0.377028714107366	n/a	n/a	n/a	n/a	610.717434869739	0.22598001537279	344.292081384062	0.169059520666463	-2.22805052491411e-05	8.98370768075326	449.615690168818	8	3	0	1	0	1	0
256.764378570908	10.7919398125271	panas_none	267.556318383435	48	5	8	10	n/a	n/a	n/a	n/a	n/a	n/a	n/a	n/a	500	0	BLOCKED	n/a	n/a	+	0	inspired	At this moment	2	3	12	203	NONE	n/a	0.767790262172285	n/a	n/a	n/a	n/a	545.779569892473	0.629515757109915	n/a	n/a	n/a	n/a	534.807053941909	12	4	0	1	0	1	0
268.557182294823	2.51881369803937	punish_vlpfc	271.075995992863	49	4	9	10	0	0	0	0	250	250	250	750	500	0	BLOCKED	0.25	1	6	1	proud	At this moment	5	3	12	203	VLPFC	323.723817755468	0.0611735330836454	780.742689883181	0.0597933696311602	-1.83409161033185e-05	13.7808006247652	783.541223404255	0.659492697924673	n/a	n/a	n/a	n/a	616.733634311512	4	1	0	0	1	0	0
272.076761524137	2.51875269531553	punish_vlpfc	274.595514219453	50	4	9	10	0	0	0	0	250	250	250	750	500	0	BLOCKED	0.25	-1	8	-1	excited	At this moment	3	3	12	203	VLPFC	457.89560353756	0.377028714107366	n/a	n/a	n/a	n/a	839.587174348697	0.230591852421214	434.844896394915	0.612854318207908	-0.000230730097706798	35.9290548406568	756.821178821179	2	2	0	0	1	0	0
275.596202880246	2.51881757682281	punish_vlpfc	278.115020457068	51	4	9	10	0	0	0	0	250	250	250	750	500	0	BLOCKED	0.25	-1	6	-1	scared	At this moment	3	3	12	203	VLPFC	257.954420034774	0.419475655430712	n/a	n/a	n/a	n/a	766.817204301075	0.341275941583397	n/a	n/a	n/a	n/a	725.066511085181	2	3	0	0	1	0	0
279.115750374038	2.5188475492597	punish_vlpfc	281.634597923297	52	4	9	10	0	0	0	0	250	250	250	750	500	0	BLOCKED	0.25	1	0	-1	inspired	At this moment	3	3	12	203	VLPFC	206.50726267416	0.686641697877653	n/a	n/a	n/a	n/a	750.820717131474	0.282859338970023	n/a	n/a	n/a	n/a	753.27652733119	2	4	0	0	1	0	0
282.618713237485	2.51871813885958	punish_vlpfc	285.137431376345	53	4	9	10	0	0	0	0	250	250	250	750	500	0	BLOCKED	0.25	1	4	-1	determined	At this moment	1	3	12	203	VLPFC	556.695330894552	0.374531835205993	n/a	n/a	n/a	n/a	697.678642714571	0.461183704842429	n/a	n/a	n/a	n/a	745.392296718973	4	5	0	0	1	0	0
286.138112632183	2.51878936747181	punish_vlpfc	288.656901999655	54	4	9	10	0	0	0	0	250	250	250	750	500	0	BLOCKED	0.25	1	10	1	strong	At this moment	3	3	12	203	VLPFC	272.984362498857	0.400749063670412	n/a	n/a	n/a	n/a	761.739583333333	0.331283627978478	n/a	n/a	n/a	n/a	783.8	4	6	0	0	1	0	0
289.657648137001	2.51876080550437	punish_vlpfc	292.176408942506	55	4	9	10	0	0	0	0	250	250	250	750	500	0	BLOCKED	0.25	-1	8	-1	irritable	At this moment	2	3	12	203	VLPFC	323.047498553991	0.616729088639201	n/a	n/a	n/a	n/a	625.231270358306	0.235203689469639	600.516539950925	0.130257009815077	-5.93057776373443e-05	18.181168439634	650.165829145729	3	7	0	0	1	0	0
293.177303178947	2.51868111408595	punish_vlpfc	295.695984293033	56	4	9	10	0	0	0	0	250	250	250	750	500	0	BLOCKED	0.25	-1	8	-1	attentive	At this moment	4	3	12	203	VLPFC	407.139927904122	0.418227215980025	n/a	n/a	n/a	n/a	495.68669527897	0.323597232897771	n/a	n/a	n/a	n/a	474.346590909091	2	8	0	0	1	0	0
296.696796017122	6.02160518967452	panas_none	302.718401206796	57	5	10	10	n/a	n/a	n/a	n/a	n/a	n/a	n/a	n/a	500	0	BLOCKED	n/a	n/a	+	0	determined	At this moment	3	3	12	203	NONE	n/a	0.324594257178527	n/a	n/a	n/a	n/a	624.404805914972	0.282090699461952	n/a	n/a	n/a	n/a	561.871520342612	10	1	0	1	0	0	1
303.719373371571	6.02142676552575	panas_none	309.740800137097	58	5	10	10	n/a	n/a	n/a	n/a	n/a	n/a	n/a	n/a	500	0	BLOCKED	n/a	n/a	+	0	active	At this moment	3	3	12	203	NONE	n/a	0.504369538077403	n/a	n/a	n/a	n/a	524.682619647355	0.648731744811683	n/a	n/a	n/a	n/a	486.330415754923	13	2	0	1	0	0	1
310.741456357136	6.03830159957613	panas_none	316.779757956713	59	5	10	10	n/a	n/a	n/a	n/a	n/a	n/a	n/a	n/a	500	0	BLOCKED	n/a	n/a	+	0	irritable	At this moment	4	3	12	203	NONE	n/a	0.715355805243446	n/a	n/a	n/a	n/a	545.723684210526	0	653.415476762952	-0.285287429693596	0.000125073213190127	12.1493861002546	519.125288239816	6	3	0	1	0	0	1
317.780606352957	8.42358492196166	panas_none	326.204191274919	60	5	10	10	n/a	n/a	n/a	n/a	n/a	n/a	n/a	n/a	500	0	BLOCKED	n/a	n/a	+	0	excited	At this moment	3	3	12	203	NONE	n/a	0.409488139825218	n/a	n/a	n/a	n/a	715.854122621564	0.697924673328209	n/a	n/a	n/a	n/a	561.318066157761	13	4	0	1	0	0	1
327.204917665719	2.51877244186028	punish_rtpj	329.723690107579	61	3	11	10	750	250	250	250	0	0	0	0	500	0	BLOCKED	0.25	-1	10	-1	alert	At this moment	2	3	12	203	RTPJ	557.791969431564	0.404494382022472	n/a	n/a	n/a	n/a	763.457023060797	0.461183704842429	n/a	n/a	n/a	n/a	755.412268188302	3	1	0	0	1	0	0
330.724455638856	2.51871073390447	punish_rtpj	333.24316637276	62	3	11	10	750	250	250	250	0	0	0	0	500	0	BLOCKED	0.25	1	6	1	ashamed	At this moment	3	3	12	203	RTPJ	389.827848906629	0	2144.9319406943	-1.24144179027529	0.000278837860689716	10.6700900497924	782.333333333333	0.445042275172944	n/a	n/a	n/a	n/a	839.267313019391	2	2	0	0	1	0	0
334.243877953651	2.51873012783471	punish_rtpj	336.762608081486	63	3	11	10	750	250	250	250	0	0	0	0	500	0	BLOCKED	0.25	1	2	-1	interested	At this moment	5	3	12	203	RTPJ	324.379332559183	0.553058676654182	n/a	n/a	n/a	n/a	703.731843575419	0.303612605687932	n/a	n/a	n/a	n/a	688.833333333333	2	3	0	0	1	0	0
337.763898306699	2.51831121896487	punish_rtpj	340.282209525663	64	3	11	10	750	250	250	250	0	0	0	0	500	0	BLOCKED	0.25	-1	0	1	jittery	At this moment	4	3	12	203	RTPJ	589.751754180528	0	198.330859074087	0.404242219425007	-9.74759873388171e-05	12.6952497734354	611.640449438202	0.239815526518063	479.597938158052	0.104622981187313	5.27155294809966e-05	10.654042979456	599.228513650152	1	4	0	0	1	0	0
341.283066384715	2.51866736202595	punish_rtpj	343.801733746741	65	3	11	10	750	250	250	250	0	0	0	0	500	0	BLOCKED	0.25	1	3	-1	afraid	At this moment	3	3	12	203	RTPJ	323.620501004159	0.399500624219725	n/a	n/a	n/a	n/a	512.295218295218	0.8923904688701	n/a	n/a	n/a	n/a	464.678571428571	2	5	0	0	1	0	0
344.802471421283	2.51879853551185	punish_rtpj	347.321269956795	66	3	11	10	750	250	250	250	0	0	0	0	500	0	BLOCKED	0.25	1	4	-1	distressed	At this moment	1	3	12	203	RTPJ	341.03730721958	0.692883895131086	n/a	n/a	n/a	n/a	536.044715447154	0	434.43788994882	-0.0420017501859519	3.0725801247949e-05	8.15532367574905	426.387394312068	2	6	0	0	1	0	0
348.305559463726	2.51854747228327	punish_rtpj	350.82410693601	67	3	11	10	750	250	250	250	0	0	0	0	500	0	BLOCKED	0.25	1	2	-1	determined	At this moment	4	3	12	203	RTPJ	790.255714244209	0	-585.209229603087	1.36090181330215	-0.000356684818313322	16.7800290794395	656.714107365793	0.690238278247502	n/a	n/a	n/a	n/a	684.776674937965	3	7	0	0	1	0	0
351.825012456193	2.51864408931141	punish_rtpj	354.343656545504	68	3	11	10	750	250	250	250	0	0	0	0	500	0	BLOCKED	0.25	1	0	-1	guilty	At this moment	4	3	12	203	RTPJ	873.52337268088	0.388264669163546	n/a	n/a	n/a	n/a	716.257142857143	0.461183704842429	n/a	n/a	n/a	n/a	738.513552068474	3	8	0	0	1	0	0
355.344492600158	6.02160624752565	panas_none	361.366098847684	69	5	12	10	n/a	n/a	n/a	n/a	n/a	n/a	n/a	n/a	500	0	BLOCKED	n/a	n/a	+	0	inspired	At this moment	3	3	12	203	NONE	n/a	0.379525593008739	n/a	n/a	n/a	n/a	568.486921529175	0.222136817832437	537.970322999894	0.251391192891933	-0.000164624703325212	13.4313312046093	619.146245059289	9	1	0	1	0	0	0
362.350163032421	6.05496415825559	panas_none	368.405127190677	70	5	12	10	n/a	n/a	n/a	n/a	n/a	n/a	n/a	n/a	500	0	BLOCKED	n/a	n/a	+	0	enthusiastic	At this moment	3	3	12	203	NONE	n/a	0.440699126092385	n/a	n/a	n/a	n/a	639.03125	0.381245196003075	n/a	n/a	n/a	n/a	610.850931677019	7	2	0	1	0	0	0
369.389136719795	6.02171379567778	panas_none	375.410850515473	71	5	12	10	n/a	n/a	n/a	n/a	n/a	n/a	n/a	n/a	500	0	BLOCKED	n/a	n/a	+	0	upset	At this moment	2	3	12	203	NONE	n/a	0.458177278401998	n/a	n/a	n/a	n/a	524.576036866359	0.58032282859339	n/a	n/a	n/a	n/a	560.386446886447	8	3	0	1	0	0	0
376.411552928325	5.65461069508177	panas_none	382.066163623407	72	5	12	10	n/a	n/a	n/a	n/a	n/a	n/a	n/a	n/a	500	0	BLOCKED	n/a	n/a	+	0	distressed	At this moment	4	3	12	203	NONE	n/a	0	785.191847238993	-0.185011412753587	6.66018803980802e-05	14.693986884092	693.588014981273	0.686395080707148	n/a	n/a	n/a	n/a	559.539215686274	7	4	0	1	0	0	0
383.067616405007	2.51809224387443	punish_vlpfc	385.585708648882	73	4	13	10	0	0	0	0	250	250	250	750	500	0	BLOCKED	0.25	1	0	-1	inspired	At this moment	1	3	12	203	VLPFC	422.822211620398	0.700374531835206	n/a	n/a	n/a	n/a	672.991666666667	0.272098385857033	n/a	n/a	n/a	n/a	702.626187961985	2	1	0	0	1	0	0
386.586537651198	2.51876362643856	punish_vlpfc	389.105301277637	74	4	13	10	0	0	0	0	250	250	250	750	500	0	BLOCKED	0.25	-1	9	-1	proud	At this moment	3	3	12	203	VLPFC	657.163994006813	0.749063670411985	n/a	n/a	n/a	n/a	984.437810945274	0	591.72408399272	0.235512762205773	-6.10312637025476e-06	17.6476617448614	787.128362797848	2	2	0	0	1	0	0
390.106040362646	2.51864655763001	punish_vlpfc	392.624686920276	75	4	13	10	0	0	0	0	250	250	250	750	500	0	BLOCKED	0.25	-1	10	-1	guilty	At this moment	4	3	12	203	VLPFC	307.552807023749	0.454431960049938	n/a	n/a	n/a	n/a	817.363844393593	0.32205995388163	n/a	n/a	n/a	n/a	838.210884353741	2	3	0	0	1	0	0
393.625756054697	2.51856968714759	punish_vlpfc	396.144325741844	76	4	13	10	0	0	0	0	250	250	250	750	500	0	BLOCKED	0.25	1	9	1	irritable	At this moment	2	3	12	203	VLPFC	240.527035313658	0.374531835205993	n/a	n/a	n/a	n/a	839.994011976048	0.468870099923136	n/a	n/a	n/a	n/a	878.96526772793	3	4	0	0	1	0	0
397.145111724899	2.51871602315919	punish_vlpfc	399.663827748058	77	4	13	10	0	0	0	0	250	250	250	750	500	0	BLOCKED	0.25	-1	7	-1	jittery	At this moment	3	3	12	203	VLPFC	257.151863986626	0	1216.5219450562	-0.437912907334604	0.000125478917799972	5.71937102632713	856.856429463171	0.475787855495772	n/a	n/a	n/a	n/a	850.092375366569	2	5	0	0	1	0	0
400.664575295872	2.51878266775145	punish_vlpfc	403.183357963624	78	4	13	10	0	0	0	0	250	250	250	750	500	0	BLOCKED	0.25	-1	4	1	inspired	At this moment	4	3	12	203	VLPFC	341.007334784605	0.392009987515606	n/a	n/a	n/a	n/a	730.386036960986	0.239046887009992	598.769178265562	0.241364392279992	-0.000112144501097617	20.4215170732457	702.174747474748	3	6	0	0	1	0	0
404.184087527976	2.51879289364069	punish_vlpfc	406.702880421617	79	4	13	10	0	0	0	0	250	250	250	750	500	0	BLOCKED	0.25	1	4	-1	nervous	At this moment	3	3	12	203	VLPFC	257.020337884314	0.388264669163546	n/a	n/a	n/a	n/a	771.757142857143	0.245964642582629	592.116388459589	0.378855218828053	-0.000190151930896087	24.7958757796325	747.056065239551	3	7	0	0	1	0	0
407.703716476271	2.51876327382217	punish_vlpfc	410.222479750093	80	4	13	10	0	0	0	0	250	250	250	750	500	0	BLOCKED	0.25	1	3	-1	proud	At this moment	4	3	12	203	VLPFC	272.998819791712	0.709113607990012	n/a	n/a	n/a	n/a	718.008583690987	0.230591852421214	607.412487142928	0.197611238362768	-7.4365021605595e-05	21.539806106868	711.569430569431	4	8	0	0	1	0	0
411.206526303986	6.02216020866484	panas_none	417.228686512651	81	5	14	10	n/a	n/a	n/a	n/a	n/a	n/a	n/a	n/a	500	0	BLOCKED	n/a	n/a	+	0	enthusiastic	At this moment	3	3	12	203	NONE	n/a	0.441947565543071	n/a	n/a	n/a	n/a	593.380313199105	0.169869331283628	680.125428507598	0.177998443462846	-0.000164759259103721	9.4180030067714	691.609259259259	9	1	0	1	0	0	1
418.212250334016	6.02154524480363	panas_none	424.23379557882	82	5	14	10	n/a	n/a	n/a	n/a	n/a	n/a	n/a	n/a	500	0	BLOCKED	n/a	n/a	+	0	hostile	At this moment	2	3	12	203	NONE	n/a	0.249687890137328	-1543.12644715588	1.93470255042375	-0.000426235925787359	9.41617079742798	637.30615640599	0.229823212913144	654.541235907036	-0.000920849848520595	-3.53794767912837e-06	9.78390313047071	649.501996007984	8	2	0	1	0	0	1
425.234603071504	6.02156922275196	panas_none	431.256172294256	83	5	14	10	n/a	n/a	n/a	n/a	n/a	n/a	n/a	n/a	500	0	BLOCKED	n/a	n/a	+	0	jittery	At this moment	1	3	12	203	NONE	n/a	0.463171036204744	n/a	n/a	n/a	n/a	748	0.229823212913144	559.131904139058	0.148748732942109	-7.78607175387013e-06	25.7544739912222	692.964071856287	6	3	0	1	0	0	1
432.240344379763	14.9121204652143	panas_none	447.152464844977	84	5	14	10	n/a	n/a	n/a	n/a	n/a	n/a	n/a	n/a	500	0	BLOCKED	n/a	n/a	+	0	guilty	At this moment	3	3	12	203	NONE	n/a	0.374531835205993	n/a	n/a	n/a	n/a	778.213572854291	0.733282090699462	n/a	n/a	n/a	n/a	624.688760806916	28	4	0	1	0	0	1
448.136468732226	2.51871813886055	reward_rtpj	450.655186871086	85	1	15	10	750	250	250	250	0	0	0	0	500	0	BLOCKED	0.75	1	8	1	distressed	At this moment	5	3	12	203	RTPJ	306.735441066325	0.560549313358302	n/a	n/a	n/a	n/a	707.889204545455	0.574173712528824	n/a	n/a	n/a	n/a	820.84476534296	3	1	1	0	0	0	0
451.656799035523	2.51801078937109	reward_rtpj	454.174809824894	86	1	15	10	750	250	250	250	0	0	0	0	500	0	BLOCKED	0.75	1	9	1	attentive	At this moment	1	3	12	203	RTPJ	322.578870700672	0.374531835205993	n/a	n/a	n/a	n/a	801.225548902196	0.289008455034589	n/a	n/a	n/a	n/a	821.052972972973	2	2	1	0	0	0	0
455.175621196366	2.53538951296173	reward_rtpj	457.711010709328	87	1	15	10	750	250	250	250	0	0	0	0	500	0	BLOCKED	0.75	-1	4	1	active	At this moment	2	3	12	203	RTPJ	306.952653071843	0.404494382022472	n/a	n/a	n/a	n/a	736.245283018868	0.230591852421214	456.345712932797	0.679947865775865	-0.000327946921808963	38.353741928685	737.418581418581	2	3	1	0	0	0	0
458.695016007044	2.55228444617433	reward_rtpj	461.247300453219	88	1	15	10	750	250	250	250	0	0	0	0	500	0	BLOCKED	0.75	-1	0	1	proud	At this moment	5	3	12	203	RTPJ	356.06548659876	0.374531835205993	n/a	n/a	n/a	n/a	644.872255489022	0.390468870099923	n/a	n/a	n/a	n/a	597.556116015132	2	4	1	0	0	0	0
462.231581497346	2.5185249048015	reward_rtpj	464.750106402148	89	1	15	10	750	250	250	250	0	0	0	0	500	0	BLOCKED	0.75	1	0	-1	inspired	At this moment	1	3	12	203	RTPJ	380.036383010447	0.549313358302122	n/a	n/a	n/a	n/a	614.706371191136	0	542.952062155592	-0.190422995344015	0.000167195691695233	54.1399007704145	523.169869331284	1	5	1	0	0	0	0
465.750901553242	2.51869627661262	reward_rtpj	468.269597829855	90	1	15	10	750	250	250	250	0	0	0	0	500	0	BLOCKED	0.75	1	7	1	afraid	At this moment	2	3	12	203	RTPJ	339.79856407363	0.48314606741573	n/a	n/a	n/a	n/a	792.026570048309	0.358954650269024	n/a	n/a	n/a	n/a	646.165467625899	3	6	1	0	0	0	0
469.2703418515	2.51878866223899	reward_rtpj	471.789130513739	91	1	15	10	750	250	250	250	0	0	0	0	500	0	BLOCKED	0.75	-1	0	1	active	At this moment	5	3	12	203	RTPJ	690.381210597232	0.667915106117353	n/a	n/a	n/a	n/a	668.421052631579	0.599538816295158	n/a	n/a	n/a	n/a	743.648752399232	4	7	1	0	0	0	0
472.773326577193	2.51864620501453	reward_rtpj	475.291972782208	92	1	15	10	750	250	250	250	0	0	0	0	500	0	BLOCKED	0.75	-1	8	-1	interested	At this moment	1	3	12	203	RTPJ	740.19575174246	0.686641697877653	n/a	n/a	n/a	n/a	686.430278884462	0.474250576479631	n/a	n/a	n/a	n/a	649.713450292398	4	8	1	0	0	0	0
476.276111369109	6.02159355331679	panas_none	482.297704922426	93	5	16	10	n/a	n/a	n/a	n/a	n/a	n/a	n/a	n/a	500	0	BLOCKED	n/a	n/a	+	0	irritable	At this moment	2	3	12	203	NONE	n/a	0.947565543071161	n/a	n/a	n/a	n/a	393.595238095238	0.136817832436587	802.868098448574	-0.114384380968894	-3.26475806656091e-05	16.2489464118805	648.916295636687	15	1	0	1	0	1	0
483.298466927532	6.021575569856	panas_none	489.320042497388	94	5	16	10	n/a	n/a	n/a	n/a	n/a	n/a	n/a	n/a	500	0	BLOCKED	n/a	n/a	+	0	nervous	At this moment	1	3	12	203	NONE	n/a	0.946317103620474	n/a	n/a	n/a	n/a	393.813953488372	0.0730207532667179	619.007851443391	0.0899350711808356	-4.49549941121271e-05	10.6126945423199	657.713101160862	13	2	0	1	0	1	0
490.320857747646	6.02147013740426	panas_none	496.34232788505	95	5	16	10	n/a	n/a	n/a	n/a	n/a	n/a	n/a	n/a	500	0	BLOCKED	n/a	n/a	+	0	afraid	At this moment	1	3	12	203	NONE	n/a	0.928838951310861	n/a	n/a	n/a	n/a	264.19298245614	0.229823212913144	698.303954288229	0.0328218719421576	-5.66488214380387e-05	8.84229581919083	684.884231536926	16	3	0	1	0	1	0
497.327176289758	6.05431992719139	panas_none	503.381496216949	96	5	16	10	n/a	n/a	n/a	n/a	n/a	n/a	n/a	n/a	500	0	BLOCKED	n/a	n/a	+	0	attentive	At this moment	2	3	12	203	NONE	n/a	0.624219725343321	n/a	n/a	n/a	n/a	827.079734219269	0.531898539584935	n/a	n/a	n/a	n/a	725.338259441708	12	4	0	1	0	1	0
