onset	duration	trial_type	offset	trial	block	blockCntr	frequency	amplitude_1	amplitude_2	amplitude_3	amplitude_4	amplitude_5	amplitude_6	amplitude_7	amplitude_8	transition	sham	mode	rewardFraction	guess	outcome	correct	word	when	answer	runNr	scanNr	subjectNr	target	reactionTime	outcomeEyeClosed	outcomeParms_1	outcomeParms_2	outcomeParms_3	outcomeSigma	outcomePupilArea	guessEyeClosed	guessParms_1	guessParms_2	guessParms_3	guessSigma	guessPupilArea	nrBlinks	trialInBlock	isReward	isPanas	isPunish	beforePanasReward	beforePanasVLPFC
20.4216755014828	2.51253323854995	reward_vlpfc	22.9342087400327	1	2	1	10	0	0	0	0	250	250	250	750	500	0	BLOCKED	0.75	1	10	1	determined	At this moment	4	1	6	203	VLPFC	1135.61152055813	0.0262172284644195	-2159.44153841771	3.48244999250233	-0.000903094453296712	40.9960353488425	1121.49743589744	0.0614911606456572	691.28188006606	0.277205635094092	4.7309705372821e-05	31.2908074811422	952.995085995086	1	1	1	0	0	0	0
23.9349312520474	2.51868287717039	reward_vlpfc	26.4536141292178	2	2	1	10	0	0	0	0	250	250	250	750	500	0	BLOCKED	0.75	1	7	1	scared	At this moment	5	1	6	203	VLPFC	490.638197788969	0	4409.04915692195	-3.1446335074868	0.000732611374451477	20.2681476489536	1074.90761548065	0	685.851500068043	0.314273665294616	-2.78923679087311e-05	25.6007542768621	929.380476556495	0	2	1	0	0	0	0
27.4377026445209	2.51882427654462	reward_vlpfc	29.9565269210655	3	2	1	10	0	0	0	0	250	250	250	750	500	0	BLOCKED	0.75	-1	0	1	inspired	At this moment	3	1	6	203	VLPFC	573.817349385703	0	5214.50041906774	-3.44429580485128	0.000728084395842158	19.5477290737337	1231.30586766542	0	717.228999996687	0.212322662814677	0.000136669058987525	30.7419928255958	1016.77863182168	0	3	1	0	0	0	0
30.9411150945066	2.51824527960551	reward_vlpfc	33.4593603741122	4	2	1	10	0	0	0	0	250	250	250	750	500	0	BLOCKED	0.75	1	10	1	irritable	At this moment	2	1	6	203	VLPFC	706.46300925361	0	4740.58686620218	-3.11849307557228	0.000651903405127843	17.4283681567874	1100.78651685393	0	558.303552057478	0.456517804136549	1.93669834685773e-05	26.1858961286694	963.550345887779	0	4	1	0	0	0	0
34.4434584100714	2.51874740606197	reward_vlpfc	36.9622058161334	5	2	1	10	0	0	0	0	250	250	250	750	500	0	BLOCKED	0.75	1	9	1	interested	At this moment	5	1	6	203	VLPFC	775.671832151478	0	6194.51463380687	-4.87361587305484	0.00112268895446346	15.6251777867736	970.973782771536	0	336.402051516091	1.10442135030661	-0.000396306902888624	36.5904115198541	934.571867794005	0	5	1	0	0	0	0
37.9629195127257	2.51876292120525	reward_vlpfc	40.4816824339309	6	2	1	10	0	0	0	0	250	250	250	750	500	0	BLOCKED	0.75	-1	10	-1	excited	At this moment	4	1	6	203	VLPFC	591.496149952523	0	4288.68498828521	-3.32194830429314	0.00082235455269654	15.2068942532199	983.021223470662	0	679.580231768807	0.488072971614323	-0.000178737854647475	21.6069083700915	940.055342044581	0	6	1	0	0	0	0
41.4824913370844	2.51872836474958	reward_vlpfc	44.001219701834	7	2	1	10	0	0	0	0	250	250	250	750	500	0	BLOCKED	0.75	1	4	-1	active	At this moment	3	1	6	203	VLPFC	557.514459937112	0	1086.52814211009	-0.0408930199318688	3.31798952943856e-05	11.4544026831288	1148.84769038702	0	616.096313230438	0.230616798628943	7.01551052789385e-05	10.9027609548674	879.365872405842	1	7	1	0	0	0	0
45.002050467235	2.51865219950047	reward_vlpfc	47.5207026667355	8	2	1	10	0	0	0	0	250	250	250	750	500	0	BLOCKED	0.75	-1	1	1	jittery	At this moment	3	1	6	203	VLPFC	456.893466326175	0	4707.65979439663	-3.03465572044883	0.00061968025585712	10.249964258313	1097.35830212235	0	519.42874738666	0.605575563544159	-4.60502122061347e-05	39.4817772937711	994.536510376633	1	8	1	0	0	0	0
48.5185252574191	6.0079324696334	panas_none	54.5264577270525	9	5	2	10	n/a	n/a	n/a	n/a	n/a	n/a	n/a	n/a	500	0	BLOCKED	n/a	n/a	+	0	enthusiastic	At this moment	4	1	6	203	NONE	n/a	0	-1372.99801918467	1.91343627168436	-0.000418470123275202	11.9974007435173	776.96379525593	0	783.024847205167	-0.219373103619183	7.80365117130239e-05	16.6620897342796	665.126056879324	2	1	0	1	0	1	1
55.5272112693537	6.02165772959147	panas_none	61.5488689989452	10	5	2	10	n/a	n/a	n/a	n/a	n/a	n/a	n/a	n/a	500	0	BLOCKED	n/a	n/a	+	0	guilty	At this moment	1	1	6	203	NONE	n/a	0	638.857901362604	0.0362350380459669	9.47720207521519e-06	8.87343554533955	757.136079900125	0.229823212913144	770.076824381615	0.247713013556567	-0.000194870467268595	21.6470975541117	802.200598802395	3	2	0	1	0	1	1
62.5495767010502	6.02160730537587	panas_none	68.571184006426	11	5	2	10	n/a	n/a	n/a	n/a	n/a	n/a	n/a	n/a	500	0	BLOCKED	n/a	n/a	+	0	irritable	At this moment	1	1	6	203	NONE	n/a	0.348314606741573	n/a	n/a	n/a	n/a	855.978927203065	0	873.409558414613	-0.186808538551474	5.27873266704356e-05	8.36483478999041	760.10376633359	3	3	0	1	0	1	1
69.5553247090292	12.510187983592	panas_none	82.0655126926212	12	5	2	10	n/a	n/a	n/a	n/a	n/a	n/a	n/a	n/a	500	0	BLOCKED	n/a	n/a	+	0	upset	At this moment	2	1	6	203	NONE	n/a	0.233458177278402	1162.35284972962	0.294123871196133	-0.000116364859548423	16.4978136014996	1280.70684039088	0.416602613374327	n/a	n/a	n/a	n/a	1057.37812911726	8	4	0	1	0	1	1
83.0495250426754	2.51885671729873	reward_rtpj	85.5683817599742	13	1	3	10	750	250	250	250	0	0	0	0	500	0	BLOCKED	0.75	1	1	-1	interested	At this moment	2	1	6	203	RTPJ	607.244373027701	0.272159800249688	n/a	n/a	n/a	n/a	1124.31560891938	0	258.213162969448	1.22427528897605	-0.000372943617693245	42.2326999273248	977.71714066103	1	1	1	0	0	0	0
86.5523630797418	2.53554254869373	reward_rtpj	89.0879056284355	14	1	3	10	750	250	250	250	0	0	0	0	500	0	BLOCKED	0.75	-1	4	1	inspired	At this moment	2	1	6	203	RTPJ	807.095991838723	0.374531835205993	n/a	n/a	n/a	n/a	1129.86626746507	0	595.744281296356	0.412964076825429	-5.12237884180057e-05	12.9945099002992	904.362029208301	1	2	1	0	0	0	0
90.0719828599978	2.51873894325668	reward_rtpj	92.5907218032545	15	1	3	10	750	250	250	250	0	0	0	0	500	0	BLOCKED	0.75	1	10	1	irritable	At this moment	2	1	6	203	RTPJ	657.173867279897	0.374531835205993	n/a	n/a	n/a	n/a	1043.72055888224	0.230591852421214	687.706007358587	0.0435776989692039	0.000208227323199167	10.5871904827009	873.495504495505	2	3	1	0	0	0	0
93.5915215383687	2.5187890148554	reward_rtpj	96.1103105532241	16	1	3	10	750	250	250	250	0	0	0	0	500	0	BLOCKED	0.75	1	3	-1	enthusiastic	At this moment	4	1	6	203	RTPJ	757.021924660541	0.374531835205993	n/a	n/a	n/a	n/a	975.60878243513	0	346.00747444634	0.999312592464403	-0.000305615735660099	46.7591645289288	932.146041506533	1	4	1	0	0	0	0
97.1109928669126	2.51877984681633	reward_rtpj	99.629772713729	17	1	3	10	750	250	250	250	0	0	0	0	500	0	BLOCKED	0.75	1	8	1	scared	At this moment	1	1	6	203	RTPJ	757.337516780244	0	4873.86415456613	-3.69127148115519	0.000849501651856034	10.2525086698632	911.177278401997	0	387.162201932634	0.810755346239571	-0.000280079489552478	12.1475665927318	846.704842428901	0	5	1	0	0	0	0
100.630667302788	2.51865008379914	reward_rtpj	103.149317386587	18	1	3	10	750	250	250	250	0	0	0	0	500	0	BLOCKED	0.75	-1	3	1	jittery	At this moment	1	1	6	203	RTPJ	591.124844363425	0.374531835205993	n/a	n/a	n/a	n/a	980.730538922156	0	530.422584410729	0.349283837894528	-6.55750140638064e-05	19.491973482423	771.153727901614	1	6	1	0	0	0	0
104.150134399929	2.51872448596382	reward_rtpj	106.668858885893	19	1	3	10	750	250	250	250	0	0	0	0	500	0	BLOCKED	0.75	1	8	1	hostile	At this moment	2	1	6	203	RTPJ	472.930130020482	0.374531835205993	n/a	n/a	n/a	n/a	923.097804391218	0	529.12330907291	0.288307986956005	3.02485296968261e-05	21.4561470040849	800.572636433513	1	7	1	0	0	0	0
107.669562356595	2.51880664570001	reward_rtpj	110.188369002295	20	1	3	10	750	250	250	250	0	0	0	0	500	0	BLOCKED	0.75	1	6	1	afraid	At this moment	1	1	6	203	RTPJ	456.916033807676	0	2957.07901031852	-2.29421689165071	0.000586100097003094	12.2326025919928	755.086142322097	0	618.568207327904	0.239879064796359	-8.52953604462955e-05	10.5924999854897	749.009992313605	0	8	1	0	0	0	0
111.197598044246	6.01313215834321	panas_none	117.210730202589	21	5	4	10	n/a	n/a	n/a	n/a	n/a	n/a	n/a	n/a	500	0	BLOCKED	n/a	n/a	+	0	proud	At this moment	4	1	6	203	NONE	n/a	0.373283395755306	n/a	n/a	n/a	n/a	809.229083665339	0.126825518831668	751.222096531103	-0.169169875009635	5.24145440280805e-05	8.30499007275796	644.974471830986	3	1	0	1	0	1	0
118.211439667778	6.02170251193689	panas_none	124.233142179715	22	5	4	10	n/a	n/a	n/a	n/a	n/a	n/a	n/a	n/a	500	0	BLOCKED	n/a	n/a	+	0	upset	At this moment	1	1	6	203	NONE	n/a	0.373283395755306	n/a	n/a	n/a	n/a	706.111553784861	0	578.325961518252	0.310756368598654	-0.000125811929316606	10.0925338337301	733.983858570331	2	2	0	1	0	1	0
125.233943325297	6.02158967453103	panas_none	131.255532999828	23	5	4	10	n/a	n/a	n/a	n/a	n/a	n/a	n/a	n/a	500	0	BLOCKED	n/a	n/a	+	0	strong	At this moment	5	1	6	203	NONE	n/a	0.128589263420724	1343.38078725273	-0.757031815928247	0.000210665783979931	5.10182991735218	685.191977077364	0.299769408147579	n/a	n/a	n/a	n/a	758.615806805708	5	3	0	1	0	1	0
132.256392679814	9.5077715000217	panas_none	141.764164179836	24	5	4	10	n/a	n/a	n/a	n/a	n/a	n/a	n/a	n/a	500	0	BLOCKED	n/a	n/a	+	0	interested	At this moment	4	1	6	203	NONE	n/a	0.177278401997503	-92.9438432824565	0.732100967676965	-0.000108509451271693	9.89362136009164	974.852807283763	0.230591852421214	551.336815800314	0.857808590505069	-0.000352739489359665	24.2315783254897	977.752247752248	7	4	0	1	0	1	0
142.748077091926	2.518809819252	reward_rtpj	145.266886911178	25	1	5	10	750	250	250	250	0	0	0	0	500	0	BLOCKED	0.75	-1	1	1	hostile	At this moment	5	1	6	203	RTPJ	497.600970966043	0.374531835205993	n/a	n/a	n/a	n/a	915.497005988024	0.230591852421214	395.261381682339	0.685756209120993	-0.000123210649033375	35.7956808650614	872.298701298701	2	1	1	0	0	0	0
146.267701456202	2.51870156586611	reward_rtpj	148.786403022068	26	1	5	10	750	250	250	250	0	0	0	0	500	0	BLOCKED	0.75	-1	1	1	guilty	At this moment	2	1	6	203	RTPJ	473.598691650433	0.374531835205993	n/a	n/a	n/a	n/a	854.107784431138	0.230591852421214	580.463405642765	0.595462734803061	-0.000240842785718891	12.5313332851761	862.822177822178	2	2	1	0	0	0	0
149.787201346714	2.51878548868652	reward_rtpj	152.305986835401	27	1	5	10	750	250	250	250	0	0	0	0	500	0	BLOCKED	0.75	1	10	1	attentive	At this moment	5	1	6	203	RTPJ	523.623392463662	0	3723.1925134656	-2.50097011914784	0.00054342437251987	14.7553905726865	896.337078651685	0.230591852421214	597.134961317008	0.14828523195736	0.000123138428858874	23.4216255852441	834.859140859141	1	3	1	0	0	0	0
153.306693127038	2.5187710313939	reward_rtpj	155.825464158432	28	1	5	10	750	250	250	250	0	0	0	0	500	0	BLOCKED	0.75	1	6	1	alert	At this moment	2	1	6	203	RTPJ	773.555425557541	0	4908.54589392796	-3.87056930548824	0.000913454889456068	8.02781355966478	850.774032459426	0.230591852421214	504.27557838267	0.512591519747691	-0.000150698835401887	17.8472552117711	791.989010989011	1	4	1	0	0	0	0
156.809620376179	2.51869204520969	reward_rtpj	159.328312421388	29	1	5	10	750	250	250	250	0	0	0	0	500	0	BLOCKED	0.75	-1	6	-1	hostile	At this moment	1	1	6	203	RTPJ	656.712291766657	0	1976.45896431529	-0.84675225753345	0.000167999763192766	8.92052378577343	947.837702871411	0	586.913952995871	0.0541974267447973	0.000131775059135011	9.44945116399799	746.572636433513	0	5	1	0	0	0	0
160.329116387905	2.51873894325644	reward_rtpj	162.847855331162	30	1	5	10	750	250	250	250	0	0	0	0	500	0	BLOCKED	0.75	-1	6	-1	afraid	At this moment	3	1	6	203	RTPJ	823.478572705295	0	4412.21407666517	-3.3523413776922	0.000802262045378809	9.81336925036798	944.448189762796	0	459.334975206331	0.452335993005214	-9.86634676791997e-05	21.4029789162092	759.490392006149	0	6	1	0	0	0	0
163.848597589722	2.51874211680843	reward_rtpj	166.367339706531	31	1	5	10	750	250	250	250	0	0	0	0	500	0	BLOCKED	0.75	-1	1	1	jittery	At this moment	2	1	6	203	RTPJ	790.561785708414	0	3166.4558632892	-1.65800683971232	0.000317339144330139	16.1219921423383	1101.16978776529	0	679.346023245397	0.150803469871943	0.000226610231415705	20.085238317259	992.406610299769	0	7	1	0	0	0	0
167.368258626155	2.51865960445556	reward_rtpj	169.886918230611	32	1	5	10	750	250	250	250	0	0	0	0	500	0	BLOCKED	0.75	1	10	1	upset	At this moment	2	1	6	203	RTPJ	557.121997334994	0.374531835205993	n/a	n/a	n/a	n/a	914.594810379241	0	371.332569403479	1.02041771294317	-0.000379524640303607	47.4987864196875	912.495772482706	1	8	1	0	0	0	0
170.887733128251	6.02155264975735	panas_none	176.909285778009	33	5	6	10	n/a	n/a	n/a	n/a	n/a	n/a	n/a	n/a	500	0	BLOCKED	n/a	n/a	+	0	proud	At this moment	5	1	6	203	NONE	n/a	0	830.420393152183	-0.246456816382593	7.91702799407129e-05	5.75626963118659	666.239700374532	0	657.07691406759	0.137352210988097	-0.000120485917413216	12.7568670026817	674.621060722521	4	1	0	1	0	1	0
177.893426480612	6.02156463873177	panas_none	183.914991119344	34	5	6	10	n/a	n/a	n/a	n/a	n/a	n/a	n/a	n/a	500	0	BLOCKED	n/a	n/a	+	0	scared	At this moment	1	1	6	203	NONE	n/a	0	62.0164654573612	0.73870190804755	-0.000172120953177104	8.61915454575552	844.912609238452	0	682.873245257031	-0.00685639759445686	7.37897492761479e-05	9.14406406718544	740.937740199846	2	2	0	1	0	1	0
184.899040141554	6.02171908493108	panas_none	190.920759226485	35	5	6	10	n/a	n/a	n/a	n/a	n/a	n/a	n/a	n/a	500	0	BLOCKED	n/a	n/a	+	0	nervous	At this moment	1	1	6	203	NONE	n/a	0.18976279650437	1188.71837336475	-0.459989995080193	0.000108495215966262	7.52998610489565	705.963020030817	0.0999231360491929	760.383729978151	0.168849241384818	-0.000101948420479539	6.88666323438054	818.461144321093	3	3	0	1	0	1	0
191.921496548409	11.0256398321683	panas_none	202.947136380578	36	5	6	10	n/a	n/a	n/a	n/a	n/a	n/a	n/a	n/a	500	0	BLOCKED	n/a	n/a	+	0	distressed	At this moment	1	1	6	203	NONE	n/a	0.3458177278402	n/a	n/a	n/a	n/a	853.63358778626	0.257494235203689	n/a	n/a	n/a	n/a	751.065217391304	10	4	0	1	0	1	0
203.931277083181	2.51870015539811	punish_vlpfc	206.449977238579	37	4	7	10	0	0	0	0	250	250	250	750	500	0	BLOCKED	0.25	1	3	-1	guilty	At this moment	2	1	6	203	VLPFC	289.861312249675	0.374531835205993	n/a	n/a	n/a	n/a	1002.93612774451	0.461183704842429	n/a	n/a	n/a	n/a	848.445078459344	3	1	0	0	1	0	0
207.450806593513	2.51875022699707	punish_vlpfc	209.96955682051	38	4	7	10	0	0	0	0	250	250	250	750	500	0	BLOCKED	0.25	1	2	-1	jittery	At this moment	1	1	6	203	VLPFC	441.137133062584	0.374531835205993	n/a	n/a	n/a	n/a	1052.24750499002	0.230591852421214	526.009507532398	0.557786532992709	-5.39382914517005e-05	37.2738458455247	960.802197802198	2	2	0	0	1	0	0
210.953576222902	2.53586166698207	punish_vlpfc	213.489437889884	39	4	7	10	0	0	0	0	250	250	250	750	500	0	BLOCKED	0.25	1	1	-1	inspired	At this moment	4	1	6	203	VLPFC	454.577478570398	0	2361.78240550337	-1.73391682566753	0.000530262044883067	24.0085363330002	1086.51310861423	0.230591852421214	698.726374756723	0.331389813198675	-0.000100107298321056	15.4370842967247	894.432567432567	1	3	0	0	1	0	0
214.489887123806	2.51864796809829	punish_vlpfc	217.008535091904	40	4	7	10	0	0	0	0	250	250	250	750	500	0	BLOCKED	0.25	1	3	-1	nervous	At this moment	2	1	6	203	VLPFC	774.051204909803	0	1554.59485338255	-0.375273118960829	0.000121464257772908	10.1175881010823	1308.66666666667	0.230591852421214	684.00178143916	0.217780074392642	8.5289180323972e-05	16.8757768825689	976.705294705295	1	4	0	0	1	0	0
218.009373614877	2.51888140048135	punish_vlpfc	220.528255015358	41	4	7	10	0	0	0	0	250	250	250	750	500	0	BLOCKED	0.25	-1	1	1	scared	At this moment	5	1	6	203	VLPFC	640.656939376844	0	7295.39062363917	-5.51284950840801	0.00122100845926066	16.731027357241	1165.19725343321	0.263643351268255	n/a	n/a	n/a	n/a	895.735908141962	2	5	0	0	1	0	0
221.528817086686	2.53544416858045	punish_vlpfc	224.064261255267	42	4	7	10	0	0	0	0	250	250	250	750	500	0	BLOCKED	0.25	-1	7	-1	distressed	At this moment	1	1	6	203	VLPFC	489.706583956722	0.374531835205993	n/a	n/a	n/a	n/a	1092.21157684631	0	534.307812785617	0.629556166334917	-0.000113211778289057	50.1240679972096	966.771714066103	1	6	0	0	1	0	0
225.048388911045	2.51873294876935	punish_vlpfc	227.567121859814	43	4	7	10	0	0	0	0	250	250	250	750	500	0	BLOCKED	0.25	-1	8	-1	guilty	At this moment	2	1	6	203	VLPFC	874.449344643857	0.0674157303370786	2291.77895511904	-1.19872784694721	0.000301018519367658	12.192878667348	1114.27041499331	0.230591852421214	670.883546467674	0.318651844099893	-3.91879323396152e-05	21.1115576519732	878.476523476523	3	7	0	0	1	0	0
228.571648402875	2.51506185429241	punish_vlpfc	231.086710257167	44	4	7	10	0	0	0	0	250	250	250	750	500	0	BLOCKED	0.25	1	8	1	nervous	At this moment	3	1	6	203	VLPFC	486.035842096666	0.374531835205993	n/a	n/a	n/a	n/a	1101.43912175649	0.230591852421214	679.717889568683	0.188092261603054	6.39905749335724e-05	21.3154186487623	904.628371628372	2	8	0	0	1	0	0
232.070660546648	6.02166266622791	panas_none	238.092323212876	45	5	8	10	n/a	n/a	n/a	n/a	n/a	n/a	n/a	n/a	500	0	BLOCKED	n/a	n/a	+	0	afraid	At this moment	1	1	6	203	NONE	n/a	0.0948813982521848	-4167.21869727708	4.45837058055456	-0.00099900348093542	14.7537781099225	743.31724137931	0.0207532667179093	830.969606399705	-0.105232428675016	-1.23721410688344e-05	22.6388967029638	736.766875981162	3	1	0	1	0	0	1
239.076553832787	6.02152267732146	panas_none	245.098076510108	46	5	8	10	n/a	n/a	n/a	n/a	n/a	n/a	n/a	n/a	500	0	BLOCKED	n/a	n/a	+	0	determined	At this moment	5	1	6	203	NONE	n/a	0.101123595505618	-605.581546610736	1.30510269127971	-0.000308365201038175	10.3550764603043	760.526388888889	0.0146041506533436	726.913138231744	-0.133697931280128	0.000136479463120942	8.84703963112812	729.786271450858	3	2	0	1	0	0	1
246.082125884936	6.03830301004371	panas_none	252.12042889498	47	5	8	10	n/a	n/a	n/a	n/a	n/a	n/a	n/a	n/a	500	0	BLOCKED	n/a	n/a	+	0	active	At this moment	4	1	6	203	NONE	n/a	0.374531835205993	n/a	n/a	n/a	n/a	649.355289421158	0.0960799385088393	762.163210273569	-0.0380669934505924	-3.04181212145117e-05	10.8184772388943	709.260204081633	5	3	0	1	0	0	1
253.104594985999	13.7615523465069	panas_none	266.866147332506	48	5	8	10	n/a	n/a	n/a	n/a	n/a	n/a	n/a	n/a	500	0	BLOCKED	n/a	n/a	+	0	jittery	At this moment	3	1	6	203	NONE	n/a	0	3341.10161758214	-2.33718915949984	0.000575464964180538	23.5300610569682	1001.89513108614	0.409684857801691	n/a	n/a	n/a	n/a	668.076822916667	9	4	0	1	0	0	1
267.849821875576	2.51877773111477	punish_rtpj	270.368599606691	49	3	9	10	750	250	250	250	0	0	0	0	500	0	BLOCKED	0.25	-1	8	-1	irritable	At this moment	4	1	6	203	RTPJ	356.791877399199	0.374531835205993	n/a	n/a	n/a	n/a	974.664670658683	0.230591852421214	562.148232470872	0.732270368207606	-0.00023947331196217	31.1723122949254	972.695304695305	2	1	0	0	1	0	0
271.352720915365	2.51875868980261	punish_rtpj	273.871479605168	50	3	9	10	750	250	250	250	0	0	0	0	500	0	BLOCKED	0.25	1	1	-1	alert	At this moment	3	1	6	203	RTPJ	357.596196533181	0	-313.840389230403	1.31356896731375	-0.000266944029440106	10.5201275987907	1253.07116104869	0.230591852421214	759.498282416185	-0.0939071968587901	0.000260025034591434	9.51025423764013	926.681318681319	1	2	0	0	1	0	0
274.872237731488	2.51887293767601	punish_rtpj	277.391110669164	51	3	9	10	750	250	250	250	0	0	0	0	500	0	BLOCKED	0.25	1	4	-1	inspired	At this moment	4	1	6	203	RTPJ	439.739007080207	0	2535.32842987108	-1.42410405004006	0.000338766904581766	15.0770265751739	1056.68289637953	0.44119907763259	n/a	n/a	n/a	n/a	1064.25309491059	2	3	0	0	1	0	0
278.391741500787	2.5187188440936	punish_rtpj	280.91046034488	52	3	9	10	750	250	250	250	0	0	0	0	500	0	BLOCKED	0.25	-1	0	1	hostile	At this moment	4	1	6	203	RTPJ	640.493325138465	0	3063.24429524316	-1.75616727637431	0.000363631933951414	9.04577497400978	997.765293383271	0	447.551311147886	0.693477028266143	-0.000121848164750251	49.6559146833602	931.659492697925	1	4	0	0	1	0	0
281.911840134784	2.51820860744897	punish_rtpj	284.430048742233	53	3	9	10	750	250	250	250	0	0	0	0	500	0	BLOCKED	0.25	-1	6	-1	ashamed	At this moment	4	1	6	203	RTPJ	506.239027003059	0.448189762796504	n/a	n/a	n/a	n/a	796.751131221719	0	629.871310287176	0.317635501217573	-8.89271775134342e-05	20.5299217277625	824.066871637202	2	5	0	0	1	0	0
285.430860113705	2.51923260690717	punish_rtpj	287.950092720612	54	3	9	10	750	250	250	250	0	0	0	0	500	0	BLOCKED	0.25	-1	6	-1	interested	At this moment	1	1	6	203	RTPJ	890.413016641047	0	1503.0788024858	-0.379955197148745	7.22777158819172e-05	11.8426632363146	1027.65667915106	0.230591852421214	549.030240526249	0.430928425062362	-0.000121518947509022	22.5589643573096	784.918081918082	1	6	0	0	1	0	0
288.933722481337	2.51867053557908	punish_rtpj	291.452393016916	55	3	9	10	750	250	250	250	0	0	0	0	500	0	BLOCKED	0.25	1	4	-1	scared	At this moment	5	1	6	203	RTPJ	623.657278946834	0	2455.74978747973	-1.27250546115384	0.000281520107564301	11.3966399284348	1039.79400749064	0.230591852421214	589.372367056406	0.118930289433796	0.00022191068012787	18.8612091422867	873.526473526474	1	7	0	0	1	0	0
292.436717432921	2.51854183041326	punish_rtpj	294.955259263334	56	3	9	10	750	250	250	250	0	0	0	0	500	0	BLOCKED	0.25	-1	3	1	attentive	At this moment	4	1	6	203	RTPJ	807.368212080793	0	3141.86257945909	-1.7245372824432	0.000318682616092882	21.6846997129121	875.918851435705	0.230591852421214	413.378468263491	0.900256584852764	-0.000265215119353779	45.0875247972949	907.639360639361	1	8	0	0	1	0	0
295.939405607807	6.02160201612236	panas_none	301.96100762393	57	5	10	10	n/a	n/a	n/a	n/a	n/a	n/a	n/a	n/a	500	0	BLOCKED	n/a	n/a	+	0	distressed	At this moment	1	1	6	203	NONE	n/a	0.530586766541823	n/a	n/a	n/a	n/a	628.859042553191	0	808.644354396746	-0.110883599442859	2.07559588654562e-05	29.8451409360694	733.822444273636	3	1	0	1	0	0	0
302.945001637905	6.02201069910171	panas_none	308.967012337007	58	5	10	10	n/a	n/a	n/a	n/a	n/a	n/a	n/a	n/a	500	0	BLOCKED	n/a	n/a	+	0	determined	At this moment	5	1	6	203	NONE	n/a	0.139825218476904	-137.503899813456	0.649371146411023	-0.000112565077015251	8.13204097707521	735.072568940494	0.11837048424289	852.602152802005	-0.0830939423042319	-6.27760711312176e-07	17.4392196248995	770.797733217088	5	2	0	1	0	0	0
309.950769745047	6.03870323021738	panas_none	315.989472975265	59	5	10	10	n/a	n/a	n/a	n/a	n/a	n/a	n/a	n/a	500	0	BLOCKED	n/a	n/a	+	0	interested	At this moment	4	1	6	203	NONE	n/a	0	-1119.64568053315	1.62906605961137	-0.000336097054008302	10.9925088651965	801.358302122347	0	621.587214288636	0.00947884198393923	1.51988206810459e-05	7.97539195137676	642.753266717909	2	3	0	1	0	0	0
316.973187364044	6.52204120046298	panas_none	323.495228564507	60	5	10	10	n/a	n/a	n/a	n/a	n/a	n/a	n/a	n/a	500	0	BLOCKED	n/a	n/a	+	0	strong	At this moment	4	1	6	203	NONE	n/a	0.374531835205993	n/a	n/a	n/a	n/a	1080.07185628743	0.249807840122982	720.206764143938	-0.0115310308106742	0.000134272668540914	19.2338800514417	824.284836065574	4	4	0	1	0	0	0
324.479219052314	2.51870967605458	punish_vlpfc	326.997928728368	61	4	11	10	0	0	0	0	250	250	250	750	500	0	BLOCKED	0.25	1	3	-1	inspired	At this moment	5	1	6	203	VLPFC	556.763033337658	0.374531835205993	n/a	n/a	n/a	n/a	1176.02594810379	0.230591852421214	453.356481004053	1.00100586235721	-0.000251281381935821	43.9928130803949	1074.22977022977	2	1	0	0	1	0	0
328.015931231243	2.51830980849729	punish_vlpfc	330.53424103974	62	4	11	10	0	0	0	0	250	250	250	750	500	0	BLOCKED	0.25	-1	9	-1	guilty	At this moment	4	1	6	203	VLPFC	456.587042246014	0	1507.2723517786	-0.788257608407659	0.000277340885769119	14.3383592591287	1089.6354556804	0.230591852421214	838.753725475775	0.0213147902481213	7.21769254449161e-05	20.1088256490493	920.86013986014	1	2	0	0	1	0	0
331.518351769907	2.51871320222341	punish_vlpfc	334.037064972131	63	4	11	10	0	0	0	0	250	250	250	750	500	0	BLOCKED	0.25	-1	2	1	proud	At this moment	1	1	6	203	VLPFC	389.930107805645	0	1258.32839042189	-0.153834650423736	2.80712542316318e-05	10.7402636208498	1060.75156054931	0.230591852421214	859.188120029128	-0.369490953553491	0.000400733405139437	47.9966978210864	899.323676323676	1	3	0	0	1	0	0
335.037813577795	2.53585849343028	punish_vlpfc	337.573672071226	64	4	11	10	0	0	0	0	250	250	250	750	500	0	BLOCKED	0.25	1	0	-1	alert	At this moment	1	1	6	203	VLPFC	390.3130497518	0	507.549009998577	0.670701463765132	-0.000206300720800962	31.2109935878357	994.533083645443	0.230591852421214	484.096609926976	0.794909227391194	-0.000216132188781601	47.1714824992591	979.481518481518	1	4	0	0	1	0	0
338.573956985676	2.51889197898817	punish_vlpfc	341.092848964664	65	4	11	10	0	0	0	0	250	250	250	750	500	0	BLOCKED	0.25	1	0	-1	attentive	At this moment	4	1	6	203	VLPFC	824.202495187521	0	3271.26408914808	-2.28745542988062	0.00059453183630252	8.70929593350118	1121.22971285893	0.230591852421214	689.965013703219	0.28572433736098	2.09883039042421e-05	14.7193993330889	939.856143856144	1	5	0	0	1	0	0
342.093632479401	2.51879959336225	punish_vlpfc	344.612432072763	66	4	11	10	0	0	0	0	250	250	250	750	500	0	BLOCKED	0.25	-1	7	-1	guilty	At this moment	1	1	6	203	VLPFC	541.113542992156	0	3619.81555951446	-2.49135370367548	0.000587873690377274	16.1770091063037	1011.75156054931	0.406610299769408	n/a	n/a	n/a	n/a	867.858808290155	2	6	0	0	1	0	0
345.613060436067	2.51886235916919	punish_vlpfc	348.131922795236	67	4	11	10	0	0	0	0	250	250	250	750	500	0	BLOCKED	0.25	-1	10	-1	active	At this moment	3	1	6	203	VLPFC	941.044571127743	0	2865.97851237174	-1.51229975251011	0.000316298782570844	10.0261159025679	1102.05118601748	0.230591852421214	486.656922775565	0.684740287260817	-9.47093374115329e-05	40.2073328836224	951.828171828172	1	7	0	0	1	0	0
349.132573726021	2.51879218840736	punish_vlpfc	351.651365914429	68	4	11	10	0	0	0	0	250	250	250	750	500	0	BLOCKED	0.25	1	7	1	inspired	At this moment	3	1	6	203	VLPFC	758.930992521346	0	3226.37666159742	-2.19269713108066	0.000501362320944641	11.2145726346913	858.808988764045	0.230591852421214	541.226200012948	0.697732352742031	-0.000274116776134329	32.5561061857535	873.87012987013	1	8	0	0	1	0	0
352.635589129385	6.02148494731398	panas_none	358.657074076699	69	5	12	10	n/a	n/a	n/a	n/a	n/a	n/a	n/a	n/a	500	0	BLOCKED	n/a	n/a	+	0	determined	At this moment	5	1	6	203	NONE	n/a	0.476903870162297	n/a	n/a	n/a	n/a	658.057279236277	0	819.172550269279	0.0118503445857709	-7.97578251436921e-05	23.1841171661358	761.518831667948	4	1	0	1	0	0	1
359.64116506032	6.02158156434257	panas_none	365.662746624663	70	5	12	10	n/a	n/a	n/a	n/a	n/a	n/a	n/a	n/a	500	0	BLOCKED	n/a	n/a	+	0	guilty	At this moment	1	1	6	203	NONE	n/a	0.377028714107366	n/a	n/a	n/a	n/a	702.340681362725	0.329746348962337	n/a	n/a	n/a	n/a	636.254587155963	7	2	0	1	0	0	1
366.663565048472	6.02149411535311	panas_none	372.685059163825	71	5	12	10	n/a	n/a	n/a	n/a	n/a	n/a	n/a	n/a	500	0	BLOCKED	n/a	n/a	+	0	ashamed	At this moment	1	1	6	203	NONE	n/a	0.354556803995006	n/a	n/a	n/a	n/a	695.893617021277	0	734.501858069644	0.0509679821797354	-6.89209459837027e-05	9.10840142240793	718.108378170638	4	3	0	1	0	0	1
373.685957279053	5.05411928817932	panas_none	378.740076567232	72	5	12	10	n/a	n/a	n/a	n/a	n/a	n/a	n/a	n/a	500	0	BLOCKED	n/a	n/a	+	0	afraid	At this moment	1	1	6	203	NONE	n/a	0.374531835205993	n/a	n/a	n/a	n/a	967.151696606786	0.347425057647963	n/a	n/a	n/a	n/a	901.683156654888	6	4	0	1	0	0	1
379.740766991109	2.51879924074558	punish_rtpj	382.259566231855	73	3	13	10	750	250	250	250	0	0	0	0	500	0	BLOCKED	0.25	1	1	-1	inspired	At this moment	3	1	6	203	RTPJ	423.508756711846	0.374531835205993	n/a	n/a	n/a	n/a	1001.39520958084	0.461183704842429	n/a	n/a	n/a	n/a	965.008559201141	3	1	0	0	1	0	0
383.260347983507	2.51884931234412	punish_rtpj	385.779197295851	74	3	13	10	750	250	250	250	0	0	0	0	500	0	BLOCKED	0.25	1	7	1	upset	At this moment	2	1	6	203	RTPJ	440.004527601181	0.374531835205993	n/a	n/a	n/a	n/a	1028.71656686627	0.230591852421214	715.459136999555	0.142964582582583	4.98577083026795e-05	17.5111838681332	889.546453546454	2	2	0	0	1	0	0
386.779913460762	2.51871884409388	punish_rtpj	389.298632304856	75	3	13	10	750	250	250	250	0	0	0	0	500	0	BLOCKED	0.25	-1	8	-1	interested	At this moment	1	1	6	203	RTPJ	374.05423741485	0.374531835205993	n/a	n/a	n/a	n/a	918.728542914172	0.230591852421214	509.719145557716	0.762900896168264	-0.000274355822771609	27.419060305295	923.310689310689	2	3	0	0	1	0	0
390.299418640528	2.51876397905596	punish_rtpj	392.818182619584	76	3	13	10	750	250	250	250	0	0	0	0	500	0	BLOCKED	0.25	-1	8	-1	enthusiastic	At this moment	5	1	6	203	RTPJ	573.430881270673	0	2839.64883609052	-2.1958513182412	0.000604814141126837	9.34788530653003	927.967540574282	0.230591852421214	623.17836876801	0.270242259287716	-7.05213214562965e-05	20.9153768343447	790.932067932068	2	4	0	0	1	0	0
393.818839192239	2.53558592057158	punish_rtpj	396.354425112811	77	3	13	10	750	250	250	250	0	0	0	0	500	0	BLOCKED	0.25	1	1	-1	attentive	At this moment	5	1	6	203	RTPJ	1040.07878871891	0	972.265458075914	0.378673818084284	-0.000118195035209363	9.23290480985878	1239.86766541823	0.230591852421214	768.894006937927	-0.0671833046618996	0.000236815453093473	11.0025726310893	866.603396603397	1	5	0	0	1	0	0
397.338549947654	2.51872765951623	punish_rtpj	399.85727760717	78	3	13	10	750	250	250	250	0	0	0	0	500	0	BLOCKED	0.25	1	4	-1	determined	At this moment	1	1	6	203	RTPJ	790.1626233852	0	3224.57434832618	-2.13638165594368	0.000487354525414358	6.90122546294709	913.380774032459	0	556.303145706221	0.811966575258142	-0.000333582241778233	32.2441156286033	961.634896233666	0	6	0	0	1	0	0
400.85802903377	2.51871813885981	punish_rtpj	403.376747172629	79	3	13	10	750	250	250	250	0	0	0	0	500	0	BLOCKED	0.25	1	4	-1	strong	At this moment	3	1	6	203	RTPJ	607.770830049645	0	636.601308706293	0.225668569659819	1.76559246960095e-05	14.4129196530231	1189.32209737828	0	589.792658615811	0.415235119169753	-9.19723101849662e-05	16.6210217138631	865.355880092237	0	7	0	0	1	0	0
404.377478500066	2.51876186335505	punish_rtpj	406.896240363421	80	3	13	10	750	250	250	250	0	0	0	0	500	0	BLOCKED	0.25	1	10	1	enthusiastic	At this moment	4	1	6	203	RTPJ	574.291619107593	0.49063670411985	n/a	n/a	n/a	n/a	1209.75245098039	0	581.699352425603	0.627074696388587	-6.5784966354509e-05	32.516998187897	1058.99385088394	1	8	0	0	1	0	0
407.88049390343	6.02142817599417	panas_none	413.901922079424	81	5	14	10	n/a	n/a	n/a	n/a	n/a	n/a	n/a	n/a	500	0	BLOCKED	n/a	n/a	+	0	alert	At this moment	5	1	6	203	NONE	n/a	0.119850187265918	-669.145899421149	1.43031206406551	-0.000308363063975378	13.4371579282058	967.632624113475	0.232897770945427	80.3057068660735	1.64078589800008	-0.000773949493747061	17.3313086765877	892.597194388778	5	1	0	1	0	0	0
414.902648822841	6.02178361382266	panas_none	420.924432436664	82	5	14	10	n/a	n/a	n/a	n/a	n/a	n/a	n/a	n/a	500	0	BLOCKED	n/a	n/a	+	0	inspired	At this moment	4	1	6	203	NONE	n/a	0	1685.18824504459	-0.699729774412863	0.000139043338480746	9.46649252492682	836.362047440699	0.167563412759416	825.129621347018	0.369542136671099	-0.000180333473536218	8.88849584131006	982.187442289935	4	2	0	1	0	0	0
421.908482164108	6.02174905736678	panas_none	427.930231221475	83	5	14	10	n/a	n/a	n/a	n/a	n/a	n/a	n/a	n/a	500	0	BLOCKED	n/a	n/a	+	0	upset	At this moment	1	1	6	203	NONE	n/a	0.449438202247191	n/a	n/a	n/a	n/a	672.687074829932	0	705.711865850478	0.131317337690644	-8.90080358181597e-05	10.531934324077	740.786318216756	1	3	0	1	0	0	0
428.914293290511	11.6092274904363	panas_none	440.523520780948	84	5	14	10	n/a	n/a	n/a	n/a	n/a	n/a	n/a	n/a	500	0	BLOCKED	n/a	n/a	+	0	strong	At this moment	3	1	6	203	NONE	n/a	0	1753.3038871325	-0.534577235098912	0.000111270956320483	8.95396419180491	1127.23470661673	0.230591852421214	765.542136805976	0.759124382814462	-0.000276931209308489	34.4714393946577	1166.00599400599	8	4	0	1	0	0	0
441.507685814116	2.518805940466	reward_vlpfc	444.026491754582	85	2	15	10	0	0	0	0	250	250	250	750	500	0	BLOCKED	0.75	1	7	1	irritable	At this moment	5	1	6	203	VLPFC	490.380787456874	0.374531835205993	n/a	n/a	n/a	n/a	1038.63672654691	0.230591852421214	264.96451414565	1.86633578340261	-0.000822409769780462	48.3146605296755	1129.37362637363	2	1	1	0	0	0	0
445.027297484184	2.51879500934251	reward_vlpfc	447.546092493526	86	2	15	10	0	0	0	0	250	250	250	750	500	0	BLOCKED	0.75	1	0	-1	alert	At this moment	5	1	6	203	VLPFC	322.967101902235	0.374531835205993	n/a	n/a	n/a	n/a	1191.63473053892	0.230591852421214	708.030696326231	0.852974277121405	-0.000369666087106558	24.2201557868304	1126.43956043956	2	2	1	0	0	0	0
448.546685242525	2.51882886056461	reward_vlpfc	451.065514103089	87	2	15	10	0	0	0	0	250	250	250	750	500	0	BLOCKED	0.75	1	1	-1	nervous	At this moment	1	1	6	203	VLPFC	623.81066729594	0.374531835205993	n/a	n/a	n/a	n/a	1292.24750499002	0	794.726719251003	0.0016144910751238	0.000201915508089218	13.4093556824634	970.312836279785	1	3	1	0	0	0	0
452.066342047555	2.51875340054886	reward_vlpfc	454.585095448104	88	2	15	10	0	0	0	0	250	250	250	750	500	0	BLOCKED	0.75	-1	4	1	inspired	At this moment	3	1	6	203	VLPFC	406.643090700731	0	4507.94044873305	-2.74070841300134	0.000560337132495077	10.7796520378084	1246.68289637953	0	692.365947123063	0.165644621458791	0.000223375069693774	34.578597546986	1025.50807071483	0	4	1	0	0	0	0
455.585992858097	2.51856580836187	reward_vlpfc	458.104558666459	89	2	15	10	0	0	0	0	250	250	250	750	500	0	BLOCKED	0.75	-1	3	1	determined	At this moment	4	1	6	203	VLPFC	541.686898061074	0.374531835205993	n/a	n/a	n/a	n/a	1122.6746506986	0	463.586792139688	0.955401065572332	-0.000243559312452759	56.7994429276683	1066.28670253651	1	5	1	0	0	0	0
459.105428219718	2.5186581939883	reward_vlpfc	461.624086413706	90	2	15	10	0	0	0	0	250	250	250	750	500	0	BLOCKED	0.75	1	8	1	guilty	At this moment	3	1	6	203	VLPFC	740.52650638856	0	6833.41785131208	-5.18478735016669	0.00114997857841247	18.274762853359	1075.17852684145	0	504.566163657135	0.858022466912239	-0.000251691392280475	37.1645413572235	1017.41583397387	0	6	1	0	0	0	0
462.624831845819	2.51884684402586	reward_vlpfc	465.143678689845	91	2	15	10	0	0	0	0	250	250	250	750	500	0	BLOCKED	0.75	-1	2	1	nervous	At this moment	5	1	6	203	VLPFC	724.104079812765	0.374531835205993	n/a	n/a	n/a	n/a	1030.91417165669	0.230591852421214	622.796976712888	0.531685593833609	-0.000119570013860288	26.8740740377751	946.070929070929	2	7	1	0	0	0	0
466.144408959431	2.51879994597891	reward_vlpfc	468.66320890541	92	2	15	10	0	0	0	0	250	250	250	750	500	0	BLOCKED	0.75	1	6	1	excited	At this moment	2	1	6	203	VLPFC	506.714354575146	0	3812.86545033464	-2.83986022766134	0.000707763864940778	17.4946807480123	1008.45942571785	0	688.923420660567	0.325108879147679	-7.54562056230578e-05	10.505979789403	901.368178324366	0	8	1	0	0	0	0
469.664007582674	6.0214919996518	panas_none	475.685499582325	93	5	16	10	n/a	n/a	n/a	n/a	n/a	n/a	n/a	n/a	500	0	BLOCKED	n/a	n/a	+	0	enthusiastic	At this moment	4	1	6	203	NONE	n/a	0.373283395755306	n/a	n/a	n/a	n/a	705.880478087649	0.17217524980784	723.57362213423	0.340020888667814	-0.000267410411928842	11.2767668615303	777.774373259053	2	1	0	1	0	1	1
476.686363846331	6.02152091423704	panas_none	482.707884760568	94	5	16	10	n/a	n/a	n/a	n/a	n/a	n/a	n/a	n/a	500	0	BLOCKED	n/a	n/a	+	0	alert	At this moment	5	1	6	203	NONE	n/a	0	1278.70060273004	-0.632665618401641	0.000177499921191351	10.6681888377567	742.103620474407	0	756.274691760815	-0.0604845925915614	5.34809275929068e-05	11.2235879534216	750.846272098386	0	2	0	1	0	1	1
483.708638302869	6.02164609323398	panas_none	489.730284396103	95	5	16	10	n/a	n/a	n/a	n/a	n/a	n/a	n/a	n/a	500	0	BLOCKED	n/a	n/a	+	0	inspired	At this moment	4	1	6	203	NONE	n/a	0	-4.11741546205877	0.551536399744428	-5.75539213454715e-05	6.8123385301192	897.202247191011	0	879.31648927138	-0.0569576467010453	-4.22363564378621e-06	8.51646459510173	827.60568793236	0	3	0	1	0	1	1
490.714436735064	8.67371230481336	panas_none	499.388149039877	96	5	16	10	n/a	n/a	n/a	n/a	n/a	n/a	n/a	n/a	500	0	BLOCKED	n/a	n/a	+	0	afraid	At this moment	1	1	6	203	NONE	n/a	0.198501872659176	-198.62533248584	0.949256149166482	-0.000163727790853755	8.68784220381113	1080.14797507788	0.230591852421214	785.666619771705	0.368720603009367	-8.7960538735589e-05	20.9596782113807	1002.22077922078	9	4	0	1	0	1	1
