onset	duration	trial_type	offset	trial	block	blockCntr	frequency	amplitude_1	amplitude_2	amplitude_3	amplitude_4	amplitude_5	amplitude_6	amplitude_7	amplitude_8	transition	sham	mode	rewardFraction	guess	outcome	correct	word	when	answer	runNr	scanNr	subjectNr	target	reactionTime	outcomeEyeClosed	outcomeParms_1	outcomeParms_2	outcomeParms_3	outcomeSigma	outcomePupilArea	guessEyeClosed	guessParms_1	guessParms_2	guessParms_3	guessSigma	guessPupilArea	nrBlinks	trialInBlock	isReward	isPanas	isPunish	beforePanasReward	beforePanasVLPFC
20.2730551422089	2.51501054324582	punish_rtpj	22.7880656854548	1	3	1	10	750	250	250	250	0	0	0	0	2000	0	BLOCKED	0.25	1	3	-1	inspired	At this moment	2	2	10	189	RTPJ	402.701044451445	0	-1909.83955100929	3.07091177821341	-0.000641341593939849	17.8838509204528	1676.76154806492	0	1382.88784994195	0.131011955670613	0.000188569575187893	34.6653021538529	1648.38662567256	0	1	0	0	1	0	0
23.7887927812301	2.51885653434321	punish_rtpj	26.3076493155733	2	3	1	10	750	250	250	250	0	0	0	0	2000	0	BLOCKED	0.25	1	2	-1	distressed	At this moment	4	2	10	189	RTPJ	624.239581938833	0	-539.440968279941	1.92745759316191	-0.000443207728424511	32.5312200983354	1530.11235955056	0	932.442443897435	1.24266427486561	-0.000549717674383591	44.0877101588196	1514.13220599539	0	2	0	0	1	0	0
27.29169799079	2.51883361425251	punish_rtpj	29.8105316050425	3	3	1	10	750	250	250	250	0	0	0	0	2000	0	BLOCKED	0.25	-1	9	-1	irritable	At this moment	1	2	10	189	RTPJ	456.665514785796	0	13351.2973856201	-11.0850816319127	0.00256149237598797	18.6687022484884	1496.7265917603	0	1031.83034549576	0.696724330803304	-0.000210149937070256	34.27420807214	1442.28209069946	0	3	0	0	1	0	0
30.8112724528722	2.51873029753938	punish_rtpj	33.3300027504116	4	3	1	10	750	250	250	250	0	0	0	0	2000	0	BLOCKED	0.25	-1	9	-1	interested	At this moment	2	2	10	189	RTPJ	541.401792705059	0.374531835205993	n/a	n/a	n/a	n/a	1575.97005988024	0	954.03063749244	0.523773982098115	-2.81539031395602e-05	31.8147082119788	1375.24980784012	1	4	0	0	1	0	0
34.3307651078664	2.51872183473781	punish_rtpj	36.8494869426042	5	3	1	10	750	250	250	250	0	0	0	0	2000	0	BLOCKED	0.25	1	9	1	determined	At this moment	2	2	10	189	RTPJ	457.65319435671	0	18735.6126343812	-16.0503153778199	0.00364300959063152	24.8987653031089	1278.81647940075	0	829.385593627967	0.994466768695102	-0.000294140240733146	26.2453996354847	1433.28670253651	0	5	0	0	1	0	0
37.8503219391108	2.51870032511651	punish_rtpj	40.3690222642273	6	3	1	10	750	250	250	250	0	0	0	0	2000	0	BLOCKED	0.25	1	4	-1	jittery	At this moment	3	2	10	189	RTPJ	489.915513020009	0.374531835205993	n/a	n/a	n/a	n/a	1518.49900199601	0	998.512447762212	0.641092108036075	-0.000238540283453089	50.8901580181732	1337.49807840123	1	6	0	0	1	0	0
41.3698939328752	2.51880293659121	punish_rtpj	43.8886968694665	7	3	1	10	750	250	250	250	0	0	0	0	2000	0	BLOCKED	0.25	-1	9	-1	upset	At this moment	4	2	10	189	RTPJ	507.215949565172	0	2352.82929223741	-0.662461651294806	0.000147938575195336	30.8309087837284	1622.25093632959	0.230591852421214	849.615896743866	0.746871202407607	-0.00014931948993967	37.4981533991246	1373.11688311688	1	7	0	0	1	0	0
44.8892719874196	2.51871372454986	punish_rtpj	47.4079857119694	8	3	1	10	750	250	250	250	0	0	0	0	2000	0	BLOCKED	0.25	-1	3	1	irritable	At this moment	2	2	10	189	RTPJ	423.053731743246	0	15553.642195065	-13.4430310763885	0.00312548576224269	31.4826315828021	1259.05867665418	0	771.390553437955	1.20072254809799	-0.000501497805789676	27.0153419035221	1360.28055342045	0	8	0	0	1	0	0
48.3945206880271	6.01924441278726	panas_none	54.4137651008144	9	5	2	10	n/a	n/a	n/a	n/a	n/a	n/a	n/a	n/a	2000	0	BLOCKED	n/a	1	2	-1	guilty	At this moment	1	2	10	189	NONE	n/a	0	-113.175420662646	0.764911152265883	-6.6493664745677e-05	13.788211750358	1196.73283395755	0.0868562644119908	319.263027027084	1.68656894072478	-0.000898117448385565	52.7817636651185	1006.69949494949	1	1	0	1	0	0	0
55.4144943122938	6.02164432251826	panas_none	61.4361386348121	10	5	2	10	n/a	n/a	n/a	n/a	n/a	n/a	n/a	n/a	2000	0	BLOCKED	n/a	n/a	+	0	afraid	At this moment	2	2	10	189	NONE	n/a	0	-2333.56401390334	3.78591626784502	-0.00094396888133414	26.1033070434287	1403.73782771536	0.269792467332821	n/a	n/a	n/a	n/a	1490.77263157895	3	2	0	1	0	0	0
62.4369870307557	6.02151984879747	panas_none	68.4585068795532	11	5	2	10	n/a	n/a	n/a	n/a	n/a	n/a	n/a	n/a	2000	0	BLOCKED	n/a	n/a	+	0	ashamed	At this moment	4	2	10	189	NONE	n/a	0	2042.09827375324	-0.923789685395677	0.000279027836734608	15.378230358321	1347.46192259675	0.229823212913144	1512.92217564789	-0.713036050364106	0.000441299791587032	29.1953354807888	1292.23453093812	1	3	0	1	0	0	0
69.4592491378523	10.9755826992132	panas_none	80.4348318370655	12	5	2	10	n/a	n/a	n/a	n/a	n/a	n/a	n/a	n/a	2000	0	BLOCKED	n/a	n/a	+	0	interested	At this moment	2	2	10	189	NONE	n/a	0.374531835205993	n/a	n/a	n/a	n/a	1957.47105788423	0.230591852421214	1294.79553378848	0.218834294296889	0.00018365820974279	20.038355438611	1597.76523476523	6	4	0	1	0	0	0
81.4356622495539	2.51875074931235	reward_rtpj	83.9544129988663	13	1	3	10	750	250	250	250	0	0	0	0	2000	0	BLOCKED	0.75	1	4	-1	nervous	At this moment	1	2	10	189	RTPJ	1458.10383858904	0	3683.90639256777	-1.47361047806248	0.000286910142495964	36.254053186727	1870.28464419476	0	939.90185408028	1.24477513676327	-0.000409721625614713	12.2341180056431	1644.24442736357	0	1	1	0	0	0	0
84.9385540596768	2.51879059500619	reward_rtpj	87.457344654683	14	1	3	10	750	250	250	250	0	0	0	0	2000	0	BLOCKED	0.75	-1	2	1	jittery	At this moment	3	2	10	189	RTPJ	357.929293286055	0	11691.7868482404	-9.20052080051739	0.00204958170848131	14.4931855960441	1506.52184769039	0	840.622994905846	1.05992995005025	-0.000255446409612636	19.712013638072	1538.58877786318	0	2	1	0	0	0	0
88.4414314125143	2.51872430305183	reward_rtpj	90.9601557155661	15	1	3	10	750	250	250	250	0	0	0	0	2000	0	BLOCKED	0.75	1	8	1	scared	At this moment	4	2	10	189	RTPJ	523.208530504256	0	14154.2384161775	-11.3654198254962	0.00250294424257358	13.553353701765	1430.05742821473	0	610.319538375133	1.13837200509957	-0.000256431548754562	24.2259536178171	1377.26441199078	0	3	1	0	0	0	0
91.9608951529302	2.51879553163798	reward_rtpj	94.4796906845681	16	1	3	10	750	250	250	250	0	0	0	0	2000	0	BLOCKED	0.75	-1	4	1	active	At this moment	4	2	10	189	RTPJ	439.500483088195	0.374531835205993	n/a	n/a	n/a	n/a	1216.85628742515	0	682.240895537325	1.03171493054093	-0.000336136021843362	15.5192628995271	1276.46272098386	1	4	1	0	0	0	0
95.463804946512	2.51867775763571	reward_rtpj	97.9824827041477	17	1	3	10	750	250	250	250	0	0	0	0	2000	0	BLOCKED	0.75	-1	3	1	hostile	At this moment	1	2	10	189	RTPJ	440.404592476785	0.411985018726592	n/a	n/a	n/a	n/a	1449.01061571125	0	1000.39735443602	0.516009058212155	-8.65678847800008e-05	19.4246250489195	1364.09300538048	1	5	1	0	0	0	0
98.9833420312144	2.51869574109465	reward_rtpj	101.502037772309	18	1	3	10	750	250	250	250	0	0	0	0	2000	0	BLOCKED	0.75	1	9	1	ashamed	At this moment	5	2	10	189	RTPJ	372.788916546851	0	10108.7318407039	-8.24568200318249	0.00192082731491496	26.5007702786026	1363.69787765293	0	1090.97161387219	0.219715318336433	6.74610780800041e-05	21.3384554953817	1335.94081475788	0	6	1	0	0	0	0
102.502736658745	2.51888544891776	reward_rtpj	105.021622107662	19	1	3	10	750	250	250	250	0	0	0	0	2000	0	BLOCKED	0.75	1	2	-1	interested	At this moment	1	2	10	189	RTPJ	440.877451568842	0.374531835205993	n/a	n/a	n/a	n/a	1514.55289421158	0	905.857047549409	0.816727787540015	-0.00017457638232083	46.6090502853827	1421.3235972329	1	7	1	0	0	0	0
106.022460630339	2.51864461166412	reward_rtpj	108.541105242003	20	1	3	10	750	250	250	250	0	0	0	0	2000	0	BLOCKED	0.75	-1	0	1	alert	At this moment	5	2	10	189	RTPJ	439.801970422268	0	11267.8911211769	-9.06684503268556	0.00206771300934147	11.8386191266697	1442.4631710362	0.230591852421214	1210.27272458899	0.344386414580032	3.5930246738416e-05	19.063931527435	1498.95004995005	1	8	1	0	0	0	0
109.541937770195	6.02148599758372	panas_none	115.563423767779	21	5	4	10	n/a	n/a	n/a	n/a	n/a	n/a	n/a	n/a	2000	0	BLOCKED	n/a	n/a	+	0	inspired	At this moment	2	2	10	189	NONE	n/a	0	-2793.99358958707	3.45915151427053	-0.000716649861659949	17.4069798940841	1271.03870162297	0	730.534371170569	1.05622732187991	-0.000584253668298733	108.081115385627	1130.66256725596	2	1	0	1	0	1	0
116.564362081006	6.02150503889099	panas_none	122.585867119897	22	5	4	10	n/a	n/a	n/a	n/a	n/a	n/a	n/a	n/a	2000	0	BLOCKED	n/a	n/a	+	0	irritable	At this moment	3	2	10	189	NONE	n/a	0.264669163545568	n/a	n/a	n/a	n/a	1516.99320882852	0	1285.82826676471	0.473902222673028	-0.000199632855674282	27.3736461792925	1516.34435049962	1	2	0	1	0	1	0
123.586548375499	6.02174517090991	panas_none	129.608293546408	23	5	4	10	n/a	n/a	n/a	n/a	n/a	n/a	n/a	n/a	2000	0	BLOCKED	n/a	n/a	+	0	upset	At this moment	1	2	10	189	NONE	n/a	0	4649.82013578042	-3.46368425332619	0.000857666933515477	27.26487910512	1203.17852684145	0.229823212913144	1311.12175922969	0.0286234030192665	-0.00011656553451235	33.4857529659538	1242.94810379242	2	3	0	1	0	1	0
130.592360205084	14.7119131575413	panas_none	145.304273362625	24	5	4	10	n/a	n/a	n/a	n/a	n/a	n/a	n/a	n/a	2000	0	BLOCKED	n/a	n/a	+	0	proud	At this moment	3	2	10	189	NONE	n/a	0	-1754.31230878029	3.02331851070033	-0.000662384689656791	14.5524832184413	1638.48064918851	0.378170637970792	n/a	n/a	n/a	n/a	1461.24474660074	2	4	0	1	0	1	0
146.305018794477	2.51879799995572	punish_rtpj	148.823816794433	25	3	5	10	750	250	250	250	0	0	0	0	2000	0	BLOCKED	0.25	1	4	-1	determined	At this moment	5	2	10	189	RTPJ	490.34358977899	0	8501.55050510606	-6.20132456430072	0.00141981510773238	23.0872041666804	1808.14357053683	0	876.529872770203	0.774793747067645	-5.500840178987e-05	30.5487583725649	1486.87548039969	0	1	0	0	1	0	0
149.824561521046	2.51882374098525	punish_rtpj	152.343385262031	26	3	5	10	750	250	250	250	0	0	0	0	2000	0	BLOCKED	0.25	-1	7	-1	inspired	At this moment	1	2	10	189	RTPJ	389.995557032526	0.401997503121099	n/a	n/a	n/a	n/a	1494.20668058455	0.230591852421214	968.147611447018	0.780560642652957	-0.00028805449458066	23.5558085344582	1412.7002997003	2	2	0	0	1	0	0
153.344245999563	2.51862274942545	punish_rtpj	155.862868748989	27	3	5	10	750	250	250	250	0	0	0	0	2000	0	BLOCKED	0.25	-1	3	1	distressed	At this moment	5	2	10	189	RTPJ	323.872507881373	0	10887.0027085351	-9.15665051013723	0.00214986252564213	34.682528168632	1252.68664169788	0	664.70372689913	1.10376255391614	-0.000455636939505862	19.6630866297367	1214.62567255957	0	3	0	0	1	0	0
156.863707976896	2.51869856202975	punish_rtpj	159.382406538926	28	3	5	10	750	250	250	250	0	0	0	0	2000	0	BLOCKED	0.25	-1	6	-1	interested	At this moment	2	2	10	189	RTPJ	272.842866916209	0	3507.20011096626	-1.91599162920978	0.000428842716338173	16.7329261883294	1395.85642946317	0	808.073224472315	0.719099687522195	-0.000227443801809615	40.05619391559	1223.79323597233	0	4	0	0	1	0	0
160.383155849561	2.51881668864564	punish_rtpj	162.901972538207	29	3	5	10	750	250	250	250	0	0	0	0	2000	0	BLOCKED	0.25	-1	7	-1	guilty	At this moment	2	2	10	189	RTPJ	339.665155116469	0.374531835205993	n/a	n/a	n/a	n/a	1377.47704590818	0.230591852421214	883.904787827802	0.680197801196208	-0.000235948370556557	14.6424953462003	1246.79020979021	2	5	0	0	1	0	0
163.902795545746	2.51867458408697	punish_rtpj	166.421470129833	30	3	5	10	750	250	250	250	0	0	0	0	2000	0	BLOCKED	0.25	-1	3	1	alert	At this moment	3	2	10	189	RTPJ	405.898925930262	0.423220973782772	n/a	n/a	n/a	n/a	1233.63636363636	0	934.711395284889	0.895874456864197	-0.000369775428764821	55.1896702736301	1376.2574942352	1	6	0	0	1	0	0
167.422294547841	2.51870949314909	punish_rtpj	169.94100404099	31	3	5	10	750	250	250	250	0	0	0	0	2000	0	BLOCKED	0.25	1	0	-1	scared	At this moment	4	2	10	189	RTPJ	390.171160176396	0	4253.01295228655	-2.62233746567883	0.000605641483090839	24.5087163984764	1449.21972534332	0	749.194428014865	1.07022576222748	-0.000399840563672275	27.0156991062429	1313.87163720215	0	7	0	0	1	0	0
170.941765340596	2.51897783450781	punish_rtpj	173.460743175104	32	3	5	10	750	250	250	250	0	0	0	0	2000	0	BLOCKED	0.25	-1	9	-1	distressed	At this moment	5	2	10	189	RTPJ	523.152111820877	0	3717.6948233313	-2.65773554169312	0.000695008723134315	16.2392568076566	1239.41697877653	0	944.836767274159	0.944347976027275	-0.000415190199638844	30.0442754913405	1388.62106072252	0	8	0	0	1	0	0
174.461305246234	6.02163092307748	panas_none	180.482936169311	33	5	6	10	n/a	n/a	n/a	n/a	n/a	n/a	n/a	n/a	2000	0	BLOCKED	n/a	n/a	+	0	interested	At this moment	3	2	10	189	NONE	n/a	0	-1799.67261287955	2.55864022366306	-0.000531911025608072	13.4462576159991	1199.08489388265	0	624.739944257863	0.88771727778054	-0.000444126633763005	101.196761527392	1000.33973866257	3	1	0	1	0	0	0
181.483618482761	6.02161435009168	panas_none	187.505232832853	34	5	6	10	n/a	n/a	n/a	n/a	n/a	n/a	n/a	n/a	2000	0	BLOCKED	n/a	n/a	+	0	strong	At this moment	2	2	10	189	NONE	n/a	0	2393.16857532765	-1.08316345089648	0.000286185257643412	20.87034539794	1394.33208489388	0.105303612605688	1295.87585085314	0.235324799762898	-0.000200659647477134	57.5531349446608	1305.87199312715	2	2	0	1	0	0	0
188.489417265531	6.02143627861886	panas_none	194.51085354415	35	5	6	10	n/a	n/a	n/a	n/a	n/a	n/a	n/a	n/a	2000	0	BLOCKED	n/a	n/a	+	0	upset	At this moment	2	2	10	189	NONE	n/a	0	1505.81443903478	-0.507197768295824	0.000161512919892483	19.4736492989003	1161.46941323346	0	1168.24007053663	0.513698797009168	-0.000348868454209387	58.8726201834017	1305.88777863182	1	3	0	1	0	0	0
195.511757300932	14.5285365698859	panas_none	210.040293870818	36	5	6	10	n/a	n/a	n/a	n/a	n/a	n/a	n/a	n/a	2000	0	BLOCKED	n/a	n/a	+	0	hostile	At this moment	1	2	10	189	NONE	n/a	0	3631.63032602001	-2.03707583286111	0.000524853194387166	11.1812268436914	1696.265917603	0.249039200614912	862.276471831742	0.398680135247836	0.000115466664891937	27.8455346442909	1287.24872057318	3	4	0	1	0	0	0
211.024339019869	2.51872782921791	punish_vlpfc	213.543066849086	37	4	7	10	0	0	0	0	250	250	250	750	2000	0	BLOCKED	0.25	1	4	-1	alert	At this moment	2	2	10	189	VLPFC	473.357334781438	0	890.624422776458	0.424538266806617	-7.45203337763691e-05	18.6085262366506	1448.86891385768	0	642.234996804686	1.38625268118462	-0.000616318735837607	22.2218167526164	1288.91775557264	0	1	0	0	1	0	0
214.527185342427	2.51873558678849	punish_vlpfc	217.045920929216	38	4	7	10	0	0	0	0	250	250	250	750	2000	0	BLOCKED	0.25	-1	10	-1	distressed	At this moment	4	2	10	189	VLPFC	390.460658546537	0.374531835205993	n/a	n/a	n/a	n/a	1650.12175648703	0	1171.34783221273	0.260167270792613	9.16543046491369e-05	16.8694233234339	1472.11837048424	1	2	0	0	1	0	0
218.046733358253	2.51873276585712	punish_vlpfc	220.56546612411	39	4	7	10	0	0	0	0	250	250	250	750	2000	0	BLOCKED	0.25	-1	7	-1	upset	At this moment	4	2	10	189	VLPFC	423.287164043635	0	9580.43574989005	-7.52004948892197	0.00173256775507705	26.4395522177066	1511.56928838951	0	1065.27990032409	0.776940323907298	-0.000276991457008126	17.3138766678542	1486.66794773251	0	3	0	0	1	0	0
221.566283489779	2.51867070530355	punish_vlpfc	224.084954195082	40	4	7	10	0	0	0	0	250	250	250	750	2000	0	BLOCKED	0.25	-1	4	1	inspired	At this moment	4	2	10	189	VLPFC	389.500130470842	0	13198.2289349402	-11.3407381243302	0.00268752399776461	28.7475581692589	1371.93258426966	0.253651037663336	n/a	n/a	n/a	n/a	1365.48918640577	1	4	0	0	1	0	0
225.08590061849	2.51866788437218	punish_vlpfc	227.604568502862	41	4	7	10	0	0	0	0	250	250	250	750	2000	0	BLOCKED	0.25	1	6	1	determined	At this moment	1	2	10	189	VLPFC	440.446553878486	0.374531835205993	n/a	n/a	n/a	n/a	1469.65069860279	0	913.816146696649	0.541937852425483	-7.09205505280258e-05	19.6207038645957	1313.15833973866	1	5	0	0	1	0	0
228.605268447146	2.5187295923084	punish_vlpfc	231.123998039454	42	4	7	10	0	0	0	0	250	250	250	750	2000	0	BLOCKED	0.25	-1	9	-1	hostile	At this moment	5	2	10	189	VLPFC	423.266359657049	0	4248.95757289137	-2.52674172860136	0.000569922579289144	24.7774166105061	1486.73533083645	0.230591852421214	1117.27965675589	0.62162180981498	-0.0002179379819568	23.0789091244102	1424.9040959041	1	6	0	0	1	0	0
232.124840440914	2.5187197190337	punish_vlpfc	234.643560159948	43	4	7	10	0	0	0	0	250	250	250	750	2000	0	BLOCKED	0.25	-1	7	-1	proud	At this moment	3	2	10	189	VLPFC	456.859454005957	0	2274.5142710041	-0.995553687622456	0.000252212797087619	13.9729055581344	1308.95006242197	0	888.973073753048	0.329675421351356	-8.0414035615729e-05	35.9320488737333	1100.00384319754	0	7	0	0	1	0	0
235.644387751505	2.51873382370547	punish_vlpfc	238.16312157521	44	4	7	10	0	0	0	0	250	250	250	750	2000	0	BLOCKED	0.25	-1	6	-1	upset	At this moment	2	2	10	189	VLPFC	539.549849431962	0	3647.8413689839	-2.22014144353636	0.000537428343551558	25.3610978810599	1384.33707865169	0.234435049961568	845.480961100378	0.639360803463719	-0.000219485692424829	22.8644898293722	1222.85240963855	1	8	0	0	1	0	0
239.147179771084	6.02160800299049	panas_none	245.168787774075	45	5	8	10	n/a	n/a	n/a	n/a	n/a	n/a	n/a	n/a	2000	0	BLOCKED	n/a	n/a	+	0	inspired	At this moment	2	2	10	189	NONE	n/a	0	-1593.54205189744	2.37089294347029	-0.000489123496182245	14.170906013884	1201.80524344569	0	699.781692303446	0.339642392695171	-0.000119803479232348	66.2260672650741	889.531898539585	1	1	0	1	0	0	1
246.169586451054	6.02149410777167	panas_none	252.191080558825	46	5	8	10	n/a	n/a	n/a	n/a	n/a	n/a	n/a	n/a	2000	0	BLOCKED	n/a	n/a	+	0	strong	At this moment	2	2	10	189	NONE	n/a	0	1571.4410654422	-0.883733244627022	0.000296755775304326	22.8403036797904	1040.6329588015	0	1333.72438775932	-0.160249979696743	-2.34852981202019e-05	41.1061204453467	1176.50345887779	1	2	0	1	0	0	1
253.192073880266	6.02152549066764	panas_none	259.213599370934	47	5	8	10	n/a	n/a	n/a	n/a	n/a	n/a	n/a	n/a	2000	0	BLOCKED	n/a	n/a	+	0	afraid	At this moment	1	2	10	189	NONE	n/a	0	610.116393367384	0.75327331131246	-0.000199464252489584	23.8860699345872	1301.97627965044	0	962.358917514318	0.560475983054343	-0.000217423407357526	19.1946562714318	1250.88777863182	2	3	0	1	0	0	1
260.214257001206	5.43786927791308	panas_none	265.652126279119	48	5	8	10	n/a	n/a	n/a	n/a	n/a	n/a	n/a	n/a	2000	0	BLOCKED	n/a	n/a	+	0	nervous	At this moment	1	2	10	189	NONE	n/a	0.374531835205993	n/a	n/a	n/a	n/a	1551.44311377246	0.275172943889316	n/a	n/a	n/a	n/a	1345.73170731707	2	4	0	1	0	0	1
266.652911556661	2.51875321763009	reward_vlpfc	269.171664774291	49	2	9	10	0	0	0	0	250	250	250	750	2000	0	BLOCKED	0.75	1	8	1	determined	At this moment	2	2	10	189	VLPFC	590.332658659667	0.374531835205993	n/a	n/a	n/a	n/a	1553.78443113772	0	1160.53396558031	0.955196104297486	-0.000182721273331666	30.0316274265486	1813.92851652575	2	1	1	0	0	0	0
270.172464509122	2.51868128380926	reward_vlpfc	272.691145792931	50	2	9	10	0	0	0	0	250	250	250	750	2000	0	BLOCKED	0.75	-1	0	1	guilty	At this moment	2	2	10	189	VLPFC	423.199009854347	0.374531835205993	n/a	n/a	n/a	n/a	1456.13173652695	0	1331.48300968919	0.389344246678155	-1.29458970307788e-05	16.9162887969844	1650.66717909301	1	2	1	0	0	0	0
273.691968095236	2.51897466095909	reward_vlpfc	276.210942756195	51	2	9	10	0	0	0	0	250	250	250	750	2000	0	BLOCKED	0.75	1	7	1	excited	At this moment	2	2	10	189	VLPFC	439.632714372128	0	11899.7805241596	-9.77305361343944	0.00222499594626036	25.4692622616523	1293.45692883895	0	818.431760028071	0.96955701428959	-0.000371584542967168	23.8081044945998	1323.1714066103	0	3	1	0	0	0	0
277.21150235901	2.51868833614139	reward_vlpfc	279.730190695152	52	2	9	10	0	0	0	0	250	250	250	750	2000	0	BLOCKED	0.75	1	1	-1	ashamed	At this moment	3	2	10	189	VLPFC	456.282220352441	0	3560.33837090832	-2.32362451388857	0.000628041831529809	17.481909968158	1483.67290886392	0.230591852421214	946.024931705789	0.360051754179105	-2.35142647264174e-05	33.2072426880512	1229.69030969031	1	4	1	0	0	0	0
280.731054253619	2.51866224249824	reward_vlpfc	283.249716496117	53	2	9	10	0	0	0	0	250	250	250	750	2000	0	BLOCKED	0.75	-1	0	1	active	At this moment	3	2	10	189	VLPFC	425.054831907153	0	7720.40245957576	-6.08499431671841	0.00143756279727373	20.6597695798951	1356.74656679151	0.265180630284397	n/a	n/a	n/a	n/a	1251.89121338912	1	5	1	0	0	0	0
284.233886471506	2.51857937755807	reward_vlpfc	286.752465849064	54	2	9	10	0	0	0	0	250	250	250	750	2000	0	BLOCKED	0.75	1	9	1	hostile	At this moment	5	2	10	189	VLPFC	373.309731516987	0	6213.12137160043	-5.09358104470959	0.0012619510021558	25.5567338460734	1149.88389513109	0	427.632438412704	1.43980633216996	-0.000612024242692876	19.999075572615	1146.58647194466	0	6	1	0	0	0	0
287.753531456944	2.51858149326216	reward_vlpfc	290.272112950206	55	2	9	10	0	0	0	0	250	250	250	750	2000	0	BLOCKED	0.75	-1	0	1	enthusiastic	At this moment	4	2	10	189	VLPFC	440.304449319839	0	2721.97822084574	-1.70901627352618	0.000429595781144487	12.5942257571174	1051.12609238452	0	594.232824952401	0.894617440630313	-0.000332791429432667	26.9128707662725	1068.61337432744	0	7	1	0	0	0	0
291.272921853073	2.51874722314255	reward_vlpfc	293.791669076215	56	2	9	10	0	0	0	0	250	250	250	750	2000	0	BLOCKED	0.75	-1	8	-1	upset	At this moment	3	2	10	189	VLPFC	439.533629063517	0	3246.69622300241	-2.22156453850794	0.000543602022990746	18.5572528783773	1008.31710362047	0.257494235203689	n/a	n/a	n/a	n/a	1032.966873706	1	8	1	0	0	0	0
294.792424381334	6.02156745206565	panas_none	300.8139918334	57	5	10	10	n/a	n/a	n/a	n/a	n/a	n/a	n/a	n/a	2000	0	BLOCKED	n/a	n/a	+	0	determined	At this moment	2	2	10	189	NONE	n/a	0.0861423220973783	-2685.36287027384	3.86063353078847	-0.000900589491197125	15.6756822236467	1406.12568306011	0	565.26339623814	0.482259495934167	-4.5592805013218e-05	79.9790182392696	939.421983089931	2	1	0	1	0	1	1
301.814830003455	6.02152690113712	panas_none	307.836356904592	58	5	10	10	n/a	n/a	n/a	n/a	n/a	n/a	n/a	n/a	2000	0	BLOCKED	n/a	n/a	+	0	excited	At this moment	2	2	10	189	NONE	n/a	0	5107.51019787	-3.26565588097571	0.00070256624771314	46.6202793119697	1385.51810237203	0	1388.18459968532	-0.185277872714621	0.000173111257321413	37.3403290273125	1380.01537279016	1	2	0	1	0	1	1
308.837109388776	6.02161858149248	panas_none	314.858727970269	59	5	10	10	n/a	n/a	n/a	n/a	n/a	n/a	n/a	n/a	2000	0	BLOCKED	n/a	n/a	+	0	attentive	At this moment	4	2	10	189	NONE	n/a	0	4504.90664757568	-2.8842534722456	0.000645648096039203	33.8973171307362	1329.77652933833	0	1308.25228768608	-0.20605944445368	0.000224067650128163	42.3177520945133	1327.06072252114	1	3	0	1	0	1	1
315.859591176119	13.7611430425197	panas_none	329.620734218638	60	5	10	10	n/a	n/a	n/a	n/a	n/a	n/a	n/a	n/a	2000	0	BLOCKED	n/a	n/a	+	0	distressed	At this moment	1	2	10	189	NONE	n/a	0	102.791312317793	1.53985510984036	-0.000377789715611976	18.1605321608762	1649.93258426966	0.478093774019985	n/a	n/a	n/a	n/a	1306.01914580265	3	4	0	1	0	1	1
330.621519848797	2.51879799995947	reward_rtpj	333.140317848757	61	1	11	10	750	250	250	250	0	0	0	0	2000	0	BLOCKED	0.75	1	0	-1	proud	At this moment	5	2	10	189	RTPJ	439.593573912978	0	2563.43711515652	-0.846522348727154	0.000202875090775163	33.551443224866	1691.38576779026	0	859.466478778893	1.00939113005706	-0.000313834361852745	26.1632626692532	1446.78708685626	0	1	1	0	0	0	0
334.124383449581	2.51877014323321	reward_rtpj	336.643153592814	62	1	11	10	750	250	250	250	0	0	0	0	2000	0	BLOCKED	0.75	1	1	-1	alert	At this moment	5	2	10	189	RTPJ	423.413400847465	0	5542.81565243225	-3.61254680243113	0.000834642637053072	26.3274161012753	1682.19225967541	0.244427363566487	1265.63828534825	-0.0528387916830645	0.000290859878551089	32.9559524603467	1468.51068158698	1	2	1	0	0	0	0
337.643926881388	2.51878883191944	reward_rtpj	340.162715713307	63	1	11	10	750	250	250	250	0	0	0	0	2000	0	BLOCKED	0.75	-1	4	1	excited	At this moment	5	2	10	189	RTPJ	356.782230935991	0	12024.1937099757	-9.74404663604168	0.00218799443106634	11.6004296810713	1312.13108614232	0	940.679589634945	0.873731442280572	-0.000293504360958081	17.2878596568401	1429.87317448117	0	3	1	0	0	0	0
341.163375459284	2.5188128098622	reward_rtpj	343.682188269146	64	1	11	10	750	250	250	250	0	0	0	0	2000	0	BLOCKED	0.75	-1	4	1	strong	At this moment	5	2	10	189	RTPJ	356.385184455663	0	12828.0883637011	-10.9369692326269	0.00255307167830966	31.5072116376545	1247.60424469413	0	674.788966666916	0.719913065570559	-0.000197400000684592	18.8189415221021	1118.11683320523	0	4	1	0	0	0	0
344.683043364812	2.51867811025681	reward_rtpj	347.201721475068	65	1	11	10	750	250	250	250	0	0	0	0	2000	0	BLOCKED	0.75	-1	2	1	hostile	At this moment	5	2	10	189	RTPJ	355.97085974738	0	8935.58144973906	-7.12515845425295	0.00161528243185765	14.3549481954644	1172.93757802747	0	679.338579338746	0.958648686994368	-0.00037137071500368	22.1495664889084	1173.69177555726	0	5	1	0	0	0	0
348.202486300841	2.5187147824019	reward_rtpj	350.721201083243	66	1	11	10	750	250	250	250	0	0	0	0	2000	0	BLOCKED	0.75	-1	0	1	enthusiastic	At this moment	5	2	10	189	RTPJ	406.625316470861	0	13742.3343104672	-11.8508675989319	0.00274314741391898	24.559961200728	1094.02496878901	0	754.323224420005	0.563774709970826	-9.94027383917574e-05	17.1759270973463	1148.44504227517	0	6	1	0	0	0	0
351.722029732645	2.51875427548214	reward_rtpj	354.240784008127	67	1	11	10	750	250	250	250	0	0	0	0	2000	0	BLOCKED	0.75	-1	0	1	active	At this moment	3	2	10	189	RTPJ	390.002256747335	0	7316.50387181615	-6.23547595059885	0.00155091060316867	26.6984079363529	1143.78651685393	0.289777094542659	n/a	n/a	n/a	n/a	1060.91125541126	1	7	1	0	0	0	0
355.224826336242	2.51883114593477	reward_rtpj	357.743657482177	68	1	11	10	750	250	250	250	0	0	0	0	2000	0	BLOCKED	0.75	-1	1	1	distressed	At this moment	3	2	10	189	RTPJ	324.109818968922	0	9700.48476595102	-8.3097696533466	0.00201705988616719	38.6300917170662	1253.15355805243	0	845.57894798465	0.194501704130906	5.28884349364754e-05	27.3152576827858	1056.85395849347	0	8	1	0	0	0	0
358.727760812994	6.02151738047968	panas_none	364.749278193474	69	5	12	10	n/a	n/a	n/a	n/a	n/a	n/a	n/a	n/a	2000	0	BLOCKED	n/a	n/a	+	0	irritable	At this moment	3	2	10	189	NONE	n/a	0.3083645443196	n/a	n/a	n/a	n/a	1442.72924187726	0	695.668415172199	1.21351352370494	-0.00065343722606669	83.2550025098215	1167.12759415834	2	1	0	1	0	1	0
365.750030677661	6.02161152915659	panas_none	371.771642206818	70	5	12	10	n/a	n/a	n/a	n/a	n/a	n/a	n/a	n/a	2000	0	BLOCKED	n/a	n/a	+	0	guilty	At this moment	1	2	10	189	NONE	n/a	0	442.366384995593	0.95432523939829	-0.000227550864218542	15.4003173417055	1431.26966292135	0	1633.13517367957	-0.16207802761498	5.48729580776471e-05	47.8125838243598	1546.74481168332	2	2	0	1	0	1	0
372.772459925104	6.02152090664953	panas_none	378.793980831753	71	5	12	10	n/a	n/a	n/a	n/a	n/a	n/a	n/a	n/a	2000	0	BLOCKED	n/a	n/a	+	0	inspired	At this moment	2	2	10	189	NONE	n/a	0.131086142322097	4003.93562341832	-2.58630447399098	0.000607012691977979	17.8961348078386	1277.16522988506	0	891.159737382049	0.270990414783248	-4.8085228492322e-05	17.2592169685155	1080.7048424289	2	3	0	1	0	1	0
379.79484967947	14.1616345902942	panas_none	393.956484269764	72	5	12	10	n/a	n/a	n/a	n/a	n/a	n/a	n/a	n/a	2000	0	BLOCKED	n/a	n/a	+	0	enthusiastic	At this moment	1	2	10	189	NONE	n/a	0.257178526841448	n/a	n/a	n/a	n/a	1829.45042016807	0.461183704842429	n/a	n/a	n/a	n/a	1445.70185449358	4	4	0	1	0	1	0
394.940702553652	2.51850285971909	punish_vlpfc	397.459205413371	73	4	13	10	0	0	0	0	250	250	250	750	2000	0	BLOCKED	0.25	1	10	1	scared	At this moment	3	2	10	189	VLPFC	672.985324092209	0	10138.5648841795	-8.29405373893442	0.00191828781947131	18.2861565901314	1280.10486891386	0	590.482949036005	1.11621400397525	-0.000363400912649314	13.9141394099008	1226.31744811683	0	1	0	0	1	0	0
398.459954724006	2.51868128380926	punish_vlpfc	400.978636007816	74	4	13	10	0	0	0	0	250	250	250	750	2000	0	BLOCKED	0.25	-1	7	-1	attentive	At this moment	2	2	10	189	VLPFC	440.027645155787	0	1088.63621947869	0.00444605196664805	0.000114248465207326	13.4292142713952	1607.4456928839	0.249807840122982	894.103509180646	0.657313418836716	-0.000226502804898704	23.1243068236645	1271.09631147541	1	2	0	0	1	0	0
401.979865935102	2.51838508572428	punish_vlpfc	404.498251020826	75	4	13	10	0	0	0	0	250	250	250	750	2000	0	BLOCKED	0.25	-1	7	-1	ashamed	At this moment	4	2	10	189	VLPFC	339.242014996707	0	2619.00462488013	-1.43358771735635	0.000428724548723091	15.1804121264578	1522.30087390762	0.416602613374327	n/a	n/a	n/a	n/a	1294.19235836627	1	3	0	0	1	0	0
405.499119868547	2.51859736101704	punish_vlpfc	408.017717229564	76	4	13	10	0	0	0	0	250	250	250	750	2000	0	BLOCKED	0.25	-1	1	1	upset	At this moment	1	2	10	189	VLPFC	407.783662557602	0	10466.4461721202	-8.41583695682758	0.00191160545946649	14.6427732368044	1304.67415730337	0	901.634533211585	0.733510835472327	-0.000263917465537655	27.5951263315703	1297.19369715603	0	4	0	0	1	0	0
409.018663652968	2.51852013794331	punish_vlpfc	411.537183790911	77	4	13	10	0	0	0	0	250	250	250	750	2000	0	BLOCKED	0.25	1	0	-1	afraid	At this moment	1	2	10	189	VLPFC	406.611564420164	0	1903.05049172505	-0.314913909902318	-3.55127726203638e-05	37.7021638428311	1083.79151061174	0.261337432744043	n/a	n/a	n/a	n/a	1154.02809573361	1	5	0	0	1	0	0
412.538028660692	2.51877402201671	punish_vlpfc	415.056802682709	78	4	13	10	0	0	0	0	250	250	250	750	2000	0	BLOCKED	0.25	-1	7	-1	inspired	At this moment	5	2	10	189	VLPFC	674.299879401922	0	933.512319323862	0.65249938895702	-0.000206942012040456	17.5040583480592	1379.46441947566	0.230591852421214	512.156445566817	0.76743881490432	-0.000128149975958165	14.7314350407862	1139.86013986014	1	6	0	0	1	0	0
416.057659541458	2.51871478239821	punish_vlpfc	418.576374323856	79	4	13	10	0	0	0	0	250	250	250	750	2000	0	BLOCKED	0.25	-1	8	-1	interested	At this moment	2	2	10	189	VLPFC	390.268835023046	0.433208489388265	n/a	n/a	n/a	n/a	1196.99118942731	0	846.439865839229	0.392699506889042	4.01976253329441e-05	15.4891631305833	1215.69408147579	1	7	0	0	1	0	0
419.577181816261	2.51869362539054	punish_vlpfc	422.095875441652	80	4	13	10	0	0	0	0	250	250	250	750	2000	0	BLOCKED	0.25	1	3	-1	excited	At this moment	3	2	10	189	VLPFC	373.27764339	0	4765.63099222921	-3.15510640889938	0.000726565070515449	11.9901806995167	1382.8252184769	0	735.764913915087	0.767088028444888	-0.000141208902854529	25.3499791737439	1270.05611068409	0	8	0	0	1	0	0
423.096621931352	6.02161258701238	panas_none	429.118234518364	81	5	14	10	n/a	n/a	n/a	n/a	n/a	n/a	n/a	n/a	2000	0	BLOCKED	n/a	n/a	+	0	upset	At this moment	2	2	10	189	NONE	n/a	0	-616.94547021867	2.0133947187364	-0.000480301691737834	24.8945889795168	1467.4531835206	0	782.701131983012	0.328651614993651	4.08265653457912e-05	111.23574987345	1100.60107609531	2	1	0	1	0	0	1
430.119133338507	6.0216947467141	panas_none	436.140828085221	82	5	14	10	n/a	n/a	n/a	n/a	n/a	n/a	n/a	n/a	2000	0	BLOCKED	n/a	n/a	+	0	active	At this moment	2	2	10	189	NONE	n/a	0	2870.78691051099	-1.7959598813516	0.000469894999662116	10.8384189641177	1196.51560549313	0	1288.23653373006	-0.465571827757261	0.000241618625648112	12.4934548380602	1101.28285933897	1	2	0	1	0	0	1
437.141496646613	6.02151667525249	panas_none	443.163013321865	83	5	14	10	n/a	n/a	n/a	n/a	n/a	n/a	n/a	n/a	2000	0	BLOCKED	n/a	n/a	+	0	proud	At this moment	2	2	10	189	NONE	n/a	0	-415.961566339795	1.27139140907901	-0.000230651815813853	10.8363082924627	1224.22347066167	0	858.645573676006	0.292582896619221	-0.000133788606734437	25.6455352553571	993.193697156034	1	3	0	1	0	0	1
444.163729133904	9.57460595076157	panas_none	453.738335084666	84	5	14	10	n/a	n/a	n/a	n/a	n/a	n/a	n/a	n/a	2000	0	BLOCKED	n/a	n/a	+	0	jittery	At this moment	3	2	10	189	NONE	n/a	0	-1530.52787902682	2.74670034814149	-0.000610043594344118	19.3718448553148	1514.97877652934	0.260568793235972	n/a	n/a	n/a	n/a	1221.01455301455	1	4	0	1	0	0	1
454.739014929794	2.51882585668562	reward_vlpfc	457.257840786479	85	2	15	10	0	0	0	0	250	250	250	750	2000	0	BLOCKED	0.75	1	1	-1	determined	At this moment	3	2	10	189	VLPFC	623.367208052427	0	2971.03260468477	-1.21412467219466	0.000268906816734412	23.4400865715706	1622.50686641698	0	589.745718557834	1.21357344217618	-0.000346644728461584	11.3819877536312	1325.7048424289	0	1	1	0	0	0	0
458.258511816189	2.51881527817994	reward_vlpfc	460.777327094369	86	2	15	10	0	0	0	0	250	250	250	750	2000	0	BLOCKED	0.75	-1	2	1	excited	At this moment	2	2	10	189	VLPFC	373.823141533881	0	10364.1457653174	-8.6188592395162	0.00197699570069735	30.5668511229572	1089.80898876404	0.23674096848578	930.889959658425	0.730568304425472	-0.000258693513954083	29.9677175990287	1323.89929506546	1	2	1	0	0	0	0
461.778148338825	2.51870526174827	reward_vlpfc	464.296853600573	87	2	15	10	0	0	0	0	250	250	250	750	2000	0	BLOCKED	0.75	-1	1	1	active	At this moment	2	2	10	189	VLPFC	339.499777849764	0	5809.61082641152	-4.57127092181	0.00110116571564416	19.2385106021278	1123.16978776529	0	920.775604897326	0.30778456697921	-2.53588541818334e-05	14.7493815482735	1160.42505764796	0	3	1	0	0	0	0
465.297725621842	2.51863896979393	reward_vlpfc	467.816364591636	88	2	15	10	0	0	0	0	250	250	250	750	2000	0	BLOCKED	0.75	-1	1	1	irritable	At this moment	5	2	10	189	VLPFC	356.697602909058	0.203495630461923	6264.30519321859	-4.98889643849516	0.00114646990621838	13.53130445095	904.266457680251	0	688.779789837967	0.789946543229391	-0.00030082220260527	30.6265592384608	1101.60799385088	1	4	1	0	0	0	0
468.817186893944	2.51869292015954	reward_vlpfc	471.335879814103	89	2	15	10	0	0	0	0	250	250	250	750	2000	0	BLOCKED	0.75	-1	1	1	scared	At this moment	1	2	10	189	VLPFC	406.774473365396	0	7934.37420430097	-6.5287842267166	0.00150966945409694	19.5667276329997	961.641697877653	0	758.947219405712	1.02790007372605	-0.000533216569567057	25.7333412876501	1172.45887778632	0	5	1	0	0	0	0
472.336698590241	2.51872782921788	reward_vlpfc	474.855426419459	90	2	15	10	0	0	0	0	250	250	250	750	2000	0	BLOCKED	0.75	-1	4	1	excited	At this moment	4	2	10	189	VLPFC	406.006826657802	0.429463171036205	n/a	n/a	n/a	n/a	1300.06564551422	0	731.94645742111	0.928151747069139	-0.000265582181833426	13.107711978939	1291.71176018447	1	6	1	0	0	0	0
475.856241316814	2.51868304688855	reward_vlpfc	478.374924363703	91	2	15	10	0	0	0	0	250	250	250	750	2000	0	BLOCKED	0.75	-1	2	1	jittery	At this moment	2	2	10	189	VLPFC	373.294568996876	0	12489.9268682367	-10.1751334602277	0.00229790568264102	19.2633520182599	1352.6279650437	0	1015.69201459672	0.427082514020744	-4.17739104007886e-05	13.2042232994562	1342.428132206	0	7	1	0	0	0	0
479.375672263872	2.51914603270961	reward_vlpfc	481.894818296581	92	2	15	10	0	0	0	0	250	250	250	750	2000	0	BLOCKED	0.75	-1	10	-1	guilty	At this moment	2	2	10	189	VLPFC	473.372144687921	0	5160.22889669937	-3.66294924518998	0.000860617427134067	16.8761539163037	1307.93508114856	0	773.246447894943	0.6708911482485	-0.000147870755592777	24.0203343571547	1216.76249039201	0	8	1	0	0	0	0
482.895279519316	6.02157626748084	panas_none	488.916855786797	93	5	16	10	n/a	n/a	n/a	n/a	n/a	n/a	n/a	n/a	2000	0	BLOCKED	n/a	n/a	+	0	hostile	At this moment	1	2	10	189	NONE	n/a	0	1140.70214548342	-0.582597571749463	0.000274769412391186	12.212110277047	1143.56928838951	0	350.835071774413	1.32004465540364	-0.000660127460814946	56.7656907000289	930.467332820907	3	1	0	1	0	1	1
489.917584293038	6.02161893411358	panas_none	495.939203227151	94	5	16	10	n/a	n/a	n/a	n/a	n/a	n/a	n/a	n/a	2000	0	BLOCKED	n/a	n/a	+	0	upset	At this moment	2	2	10	189	NONE	n/a	0	3783.87995028172	-2.0446904495217	0.000446966421254519	27.4257364089386	1484.34082397004	0	1615.66876144633	-0.610177731080731	0.000296446617044996	53.985668760215	1352.16064565719	1	2	0	1	0	1	1
496.939892592933	6.02160059803725	panas_none	502.96149319097	95	5	16	10	n/a	n/a	n/a	n/a	n/a	n/a	n/a	n/a	2000	0	BLOCKED	n/a	n/a	+	0	interested	At this moment	3	2	10	189	NONE	n/a	0	2611.88825473242	-1.64768522063379	0.000443307786214646	11.6203775929814	1130.42072409488	0	1061.82578317681	-0.589666537719964	0.000408692469330962	13.7540942135113	911.759415833974	3	3	0	1	0	1	1
503.962289047021	10.4585142845027	panas_none	514.420803331524	96	5	16	10	n/a	n/a	n/a	n/a	n/a	n/a	n/a	n/a	2000	0	BLOCKED	n/a	n/a	+	0	determined	At this moment	4	2	10	189	NONE	n/a	0.352059925093633	n/a	n/a	n/a	n/a	1719.66473988439	0.230591852421214	638.462532379113	1.27651453101116	-0.000399576679352473	15.7308660420236	1330.36163836164	3	4	0	1	0	1	1
