onset	duration	trial_type	offset	trial	block	blockCntr	frequency	amplitude_1	amplitude_2	amplitude_3	amplitude_4	amplitude_5	amplitude_6	amplitude_7	amplitude_8	transition	sham	mode	rewardFraction	guess	outcome	correct	word	when	answer	runNr	scanNr	subjectNr	target	reactionTime	outcomeEyeClosed	outcomeParms_1	outcomeParms_2	outcomeParms_3	outcomeSigma	outcomePupilArea	guessEyeClosed	guessParms_1	guessParms_2	guessParms_3	guessSigma	guessPupilArea	nrBlinks	trialInBlock	isReward	isPanas	isPunish	beforePanasReward	beforePanasVLPFC
20.29656445482	2.51629195258021	reward_vlpfc	22.8128564074002	1	2	1	10	0	0	0	0	250	250	250	750	2000	0	BLOCKED	0.75	1	8	1	upset	At this moment	3	3	14	189	VLPFC	637.768429517746	0	13318.2098124857	-11.3712585082255	0.00265713085088952	31.049353908568	1297.61298377029	0.230591852421214	1264.44258295494	0.0773637287704626	0.000126292109508903	24.1917400753796	1441.2957042957	1	1	1	0	0	0	0
23.7968899200968	2.51870349866897	reward_vlpfc	26.3155934187658	2	2	1	10	0	0	0	0	250	250	250	750	2000	0	BLOCKED	0.75	-1	8	-1	proud	At this moment	3	3	14	189	VLPFC	540.306565023959	0	12694.9873653873	-10.2307605478803	0.00229390312746116	15.6171076169572	1428.40574282147	0.230591852421214	898.273765015236	0.347693484857079	0.000100690487531892	47.2418685748329	1255.57942057942	1	2	1	0	0	0	0
27.3165112802126	2.5187578016445	reward_vlpfc	29.8352690818571	3	2	1	10	0	0	0	0	250	250	250	750	2000	0	BLOCKED	0.75	-1	3	1	hostile	At this moment	1	3	14	189	VLPFC	474.028364494443	0	13618.4427981264	-11.6310274258796	0.00271022911698009	27.9867613087257	1275.53433208489	0.230591852421214	895.219832607053	0.696368778511156	-0.000212923691330614	34.1152720526292	1296.66933066933	1	3	1	0	0	0	0
30.8360772794932	2.51871725071594	reward_vlpfc	33.3547945302092	4	2	1	10	0	0	0	0	250	250	250	750	2000	0	BLOCKED	0.75	1	9	1	guilty	At this moment	3	3	14	189	VLPFC	357.350296553224	0	12426.4876873796	-10.1323039503933	0.00229589478794112	14.6822492006498	1375.78277153558	0	670.990763979977	1.22534107690953	-0.000460210373433714	19.6734106422597	1327.27517294389	0	4	1	0	0	0	0
34.3554810750596	2.51878742145747	reward_vlpfc	36.8742684965171	5	2	1	10	0	0	0	0	250	250	250	750	2000	0	BLOCKED	0.75	-1	2	1	distressed	At this moment	4	3	14	189	VLPFC	506.966649506241	0	12938.5370049017	-11.0399442761563	0.00255244550794088	29.5427964790106	1137.02496878901	0.230591852421214	910.679924485274	0.543016650427958	-0.000168392886342194	33.0140257687786	1253.51548451548	1	5	1	0	0	0	0
37.8582822626755	2.51881774649397	reward_vlpfc	40.3771000091694	6	2	1	10	0	0	0	0	250	250	250	750	2000	0	BLOCKED	0.75	1	9	1	enthusiastic	At this moment	2	3	14	189	VLPFC	423.457125324756	0	8301.73246684976	-6.87215716170811	0.00159011117962937	24.6716979361994	965.790262172285	0	637.01303417697	0.756092957573907	-0.000269820089076785	23.6911282870235	1047.29438893159	0	6	1	0	0	0	0
41.3612350754961	2.51873417632282	reward_vlpfc	43.879969251819	7	2	1	10	0	0	0	0	250	250	250	750	2000	0	BLOCKED	0.75	-1	4	1	irritable	At this moment	5	3	14	189	VLPFC	490.033287025988	0.374531835205993	n/a	n/a	n/a	n/a	1262.49900199601	0.230591852421214	988.61752066938	0.522846521171711	-0.000139908386297925	17.2061405438076	1345.75924075924	2	7	1	0	0	0	0
44.8807488874979	2.51874087603763	reward_vlpfc	47.3994897635356	8	2	1	10	0	0	0	0	250	250	250	750	2000	0	BLOCKED	0.75	1	3	-1	afraid	At this moment	4	3	14	189	VLPFC	573.249081432819	0.374531835205993	n/a	n/a	n/a	n/a	1551.22355289421	0.230591852421214	916.93712960504	0.677386221187488	-8.33937203599494e-05	34.3526548942373	1414.18881118881	2	8	1	0	0	0	0
48.4002020494081	6.02166724261269	panas_none	54.4218692920208	9	5	2	10	n/a	n/a	n/a	n/a	n/a	n/a	n/a	n/a	2000	0	BLOCKED	n/a	n/a	+	0	scared	At this moment	1	3	14	189	NONE	n/a	0	1230.95701140966	-0.466284422312788	0.000205824302019683	17.5271654903228	1170.43570536829	0	736.710036190542	0.467238930958502	-0.000124875329346978	82.0335879114105	1029.57878554958	3	1	0	1	0	1	1
55.422660211429	6.02162633906678	panas_none	61.4442865504958	10	5	2	10	n/a	n/a	n/a	n/a	n/a	n/a	n/a	n/a	2000	0	BLOCKED	n/a	n/a	+	0	alert	At this moment	3	3	14	189	NONE	n/a	0	9166.93913802551	-7.34121386794422	0.0017035569190456	26.1165129477785	1353.71785268414	0.229823212913144	1292.10547857824	0.479669435603326	-0.000269835067232061	53.2215078863247	1455.32135728543	2	2	0	1	0	1	1
62.4450570181347	6.02149833917246	panas_none	68.4665553573072	11	5	2	10	n/a	n/a	n/a	n/a	n/a	n/a	n/a	n/a	2000	0	BLOCKED	n/a	n/a	+	0	distressed	At this moment	1	3	14	189	NONE	n/a	0.337078651685393	n/a	n/a	n/a	n/a	1276.99058380414	0	1279.95546971635	0.347434476747234	-0.000236334800804137	15.1177231198454	1370.47271329746	2	3	0	1	0	1	1
69.4673198304623	9.44115496096761	panas_none	78.9084747914299	12	5	2	10	n/a	n/a	n/a	n/a	n/a	n/a	n/a	n/a	2000	0	BLOCKED	n/a	n/a	+	0	afraid	At this moment	5	3	14	189	NONE	n/a	0.374531835205993	n/a	n/a	n/a	n/a	1846.36526946108	0.230591852421214	1133.44155462961	0.651452276044249	-0.000159380549152013	15.1881537690769	1489.26173826174	5	4	0	1	0	1	1
79.8924927889891	2.51879835257306	reward_vlpfc	82.4112911415622	13	2	3	10	0	0	0	0	250	250	250	750	2000	0	BLOCKED	0.75	1	10	1	upset	At this moment	2	3	14	189	VLPFC	407.927882820368	0	17699.5808609046	-14.3567581548805	0.00313838638332516	15.9899237708233	1503.03745318352	0	908.395246700057	0.401001567640005	0.000242050777942143	21.1023495687012	1432.74634896234	1	1	1	0	0	0	0
83.4119685183764	2.5188085784614	reward_vlpfc	85.9307770968378	14	2	3	10	0	0	0	0	250	250	250	750	2000	0	BLOCKED	0.75	-1	10	-1	strong	At this moment	1	3	14	189	VLPFC	457.02906267345	0.374531835205993	n/a	n/a	n/a	n/a	1452.99201596806	0.256725595695619	n/a	n/a	n/a	n/a	1401.02895553258	2	2	1	0	0	0	0
86.9316142090484	2.51872994492203	reward_vlpfc	89.4503441539705	15	2	3	10	0	0	0	0	250	250	250	750	2000	0	BLOCKED	0.75	-1	4	1	enthusiastic	At this moment	1	3	14	189	VLPFC	406.206407751888	0.389513108614232	n/a	n/a	n/a	n/a	1338.34969325153	0	1059.36791297738	0.549294730888109	-0.000130598988361362	23.1284469466233	1413.6003074558	1	3	1	0	0	0	0
90.4512383900955	2.51861710755527	reward_vlpfc	92.9698554976508	16	2	3	10	0	0	0	0	250	250	250	750	2000	0	BLOCKED	0.75	1	2	-1	jittery	At this moment	3	3	14	189	VLPFC	440.108041778207	0	4878.14433665931	-3.1914627221317	0.000733018526924364	36.5002857028265	1447.3720349563	0	929.456989557121	0.852017486322976	-0.000395571183278178	51.6098392668577	1312.1714066103	0	4	1	0	0	0	0
93.9705751884766	2.51877754818275	reward_vlpfc	96.4893527366593	17	2	3	10	0	0	0	0	250	250	250	750	2000	0	BLOCKED	0.75	1	9	1	alert	At this moment	5	3	14	189	VLPFC	473.731108557433	0	11129.9118928974	-9.25281507695779	0.00214964158601704	19.6396643983424	1279.15480649189	0.239815526518063	827.002209185895	1.22799610779606	-0.000640792821593365	53.0362245360579	1291.23053589484	1	5	1	0	0	0	0
97.4901849122383	2.51874687052518	reward_vlpfc	100.008931782763	18	2	3	10	0	0	0	0	250	250	250	750	2000	0	BLOCKED	0.75	-1	2	1	excited	At this moment	1	3	14	189	VLPFC	389.779402945191	0	4562.43168426921	-3.54723417231801	0.000935658275152877	24.5528901729191	1289.32209737828	0	784.568475366442	0.75732962074787	-0.000341964063020549	30.8727238619243	1131.55649500384	0	6	1	0	0	0	0
101.009738217313	2.51868904137611	reward_vlpfc	103.528427258689	19	2	3	10	0	0	0	0	250	250	250	750	2000	0	BLOCKED	0.75	1	6	1	distressed	At this moment	4	3	14	189	VLPFC	406.264236904681	0.374531835205993	n/a	n/a	n/a	n/a	1226.37924151697	0	738.36552446158	0.753658529388303	-0.000244193484539762	22.8522759066775	1168.54419677171	1	7	1	0	0	0	0
104.529168106522	2.51893869404869	reward_vlpfc	107.048106800571	20	2	3	10	0	0	0	0	250	250	250	750	2000	0	BLOCKED	0.75	-1	2	1	scared	At this moment	5	3	14	189	VLPFC	457.69515575096	0.379525593008739	n/a	n/a	n/a	n/a	1037.82494969819	0	618.443393000161	1.40893591222111	-0.000670682163319511	41.3187606410207	1237.63028439662	1	8	1	0	0	0	0
108.048735163651	6.02156992037968	panas_none	114.070305084031	21	5	4	10	n/a	n/a	n/a	n/a	n/a	n/a	n/a	n/a	2000	0	BLOCKED	n/a	n/a	+	0	determined	At this moment	3	3	14	189	NONE	n/a	0	249.042805111655	0.649055810970067	-9.19016507353844e-05	20.2953339203476	1201.80274656679	0	590.112149705571	0.520583129415256	-0.000180449132990188	69.6249767350446	881.458877786318	2	1	0	1	0	1	1
115.071068851952	6.02165137485414	panas_none	121.092720226806	22	5	4	10	n/a	n/a	n/a	n/a	n/a	n/a	n/a	n/a	2000	0	BLOCKED	n/a	n/a	+	0	active	At this moment	2	3	14	189	NONE	n/a	0	3983.7124488626	-2.63284325276315	0.000629817141152598	13.1354216265254	1265.58801498127	0	1220.68129897398	0.0720290149969497	6.39979984405873e-05	29.1682432911264	1337.36279784781	2	2	0	1	0	1	1
122.093515730236	6.02159213523568	panas_none	128.115107865471	23	5	4	10	n/a	n/a	n/a	n/a	n/a	n/a	n/a	n/a	2000	0	BLOCKED	n/a	n/a	+	0	excited	At this moment	2	3	14	189	NONE	n/a	0	2326.14562173969	-1.3905137603382	0.000412423469413697	35.01143662026	1246.68289637953	0	1214.45794462401	0.184348006790227	-0.000152282976297276	17.5740541863163	1239.68716372022	2	3	0	1	0	1	1
129.099237289932	7.956452181641	panas_none	137.055689471573	24	5	4	10	n/a	n/a	n/a	n/a	n/a	n/a	n/a	n/a	2000	0	BLOCKED	n/a	n/a	+	0	afraid	At this moment	2	3	14	189	NONE	n/a	0	-6758.6994664787	8.38470300190879	-0.00197171997722472	27.6529346946418	2049.07740324594	0.498078401229823	n/a	n/a	n/a	n/a	1562.18989280245	4	4	0	1	0	1	1
138.039704295579	2.51872712398691	reward_rtpj	140.558431419566	25	1	5	10	750	250	250	250	0	0	0	0	2000	0	BLOCKED	0.75	1	6	1	ashamed	At this moment	2	3	14	189	RTPJ	1477.82498924807	0	14463.4875953553	-12.0861392809854	0.00278780529752787	20.8868583306596	1506.40823970037	0.230591852421214	898.581019141107	1.12849151795234	-0.000363465650270976	15.8018623695955	1541.32767232767	1	1	1	0	0	0	0
141.559376079891	2.51871160884946	reward_rtpj	144.07808768874	26	1	5	10	750	250	250	250	0	0	0	0	2000	0	BLOCKED	0.75	-1	2	1	nervous	At this moment	5	3	14	189	RTPJ	539.788923602551	0.374531835205993	n/a	n/a	n/a	n/a	1587.78842315369	0	1154.32231308522	0.415028615059632	3.15299742510025e-06	17.1903970929022	1509.96541122214	1	2	1	0	0	0	0
145.078883897405	2.51870737744866	reward_rtpj	147.597591274854	27	1	5	10	750	250	250	250	0	0	0	0	2000	0	BLOCKED	0.75	1	9	1	attentive	At this moment	1	3	14	189	RTPJ	407.449381861836	0	6509.88928366762	-4.77503755878404	0.00109455936507748	28.8621840106088	1367.68164794007	0.241352805534204	938.681703194633	0.898194847482193	-0.000266930876090513	39.2336695402896	1515.69706180344	1	3	1	0	0	0	0
148.581650881194	2.51876838014647	reward_rtpj	151.10041926134	28	1	5	10	750	250	250	250	0	0	0	0	2000	0	BLOCKED	0.75	-1	4	1	excited	At this moment	5	3	14	189	RTPJ	407.77731545642	0.374531835205993	n/a	n/a	n/a	n/a	1349.66467065868	0	960.95616130128	0.587619109531093	-0.000158706926690396	19.8538024114557	1323.70330514988	1	4	1	0	0	0	0
152.101148472819	2.51886534976214	reward_rtpj	154.620013822582	29	1	5	10	750	250	250	250	0	0	0	0	2000	0	BLOCKED	0.75	1	7	1	upset	At this moment	2	3	14	189	RTPJ	423.684915762395	0	6663.42360804692	-5.23124003855632	0.0012365772972995	27.0344105474054	1196.76154806492	0	980.136401318731	0.419335704297109	-0.000190049660452055	35.8498132088304	1172.5810914681	0	5	1	0	0	0	0
155.62078781639	2.51867105791717	reward_rtpj	158.139458874308	30	1	5	10	750	250	250	250	0	0	0	0	2000	0	BLOCKED	0.75	-1	8	-1	hostile	At this moment	5	3	14	189	RTPJ	406.442660987377	0	2737.52533569885	-1.24400816501159	0.000282691275643513	30.0310070705873	1387.41697877653	0.232129131437356	651.969450991966	1.20649235586064	-0.000498676959801929	35.3337314513056	1263.2012012012	1	6	1	0	0	0	0
159.140331953432	2.51866259511559	reward_rtpj	161.658994548548	31	1	5	10	750	250	250	250	0	0	0	0	2000	0	BLOCKED	0.75	-1	6	-1	attentive	At this moment	2	3	14	189	RTPJ	373.010359875858	0	1700.41388020965	-0.429282098016805	0.000115629972653982	15.4060942610837	1314.74781523096	0.230591852421214	916.889342249451	0.337612396705464	-6.63674392705326e-05	28.5783598553776	1141.26273726274	1	7	1	0	0	0	0
162.659745622262	2.51875427548214	reward_rtpj	165.178499897745	32	1	5	10	750	250	250	250	0	0	0	0	2000	0	BLOCKED	0.75	-1	3	1	proud	At this moment	4	3	14	189	RTPJ	407.240280121565	0.374531835205993	n/a	n/a	n/a	n/a	1424.74650698603	0.252882398155265	n/a	n/a	n/a	n/a	1244.79115226337	2	8	1	0	0	0	0
166.179338420417	6.02156145758181	panas_none	172.200899877999	33	5	6	10	n/a	n/a	n/a	n/a	n/a	n/a	n/a	n/a	2000	0	BLOCKED	n/a	n/a	+	0	jittery	At this moment	1	3	14	189	NONE	n/a	0	-1245.90194587088	1.94851589773619	-0.00034727856429582	15.4496397702066	1294.32459425718	0	724.39374870846	0.672201122436053	-0.000257813198282857	95.0047415178918	1076.79938508839	3	1	0	1	0	1	0
173.201666466855	6.02161047130451	panas_none	179.223276938159	34	5	6	10	n/a	n/a	n/a	n/a	n/a	n/a	n/a	n/a	2000	0	BLOCKED	n/a	n/a	+	0	guilty	At this moment	1	3	14	189	NONE	n/a	0	5291.02617481561	-4.09672896858182	0.00104179469294572	45.0693753936186	1336.93383270911	0	1666.3010909001	-0.479347919834766	0.000162093309692931	21.5310221184356	1399.10222905457	3	2	0	1	0	1	0
180.224121807937	6.02153042730691	panas_none	186.245652235243	35	5	6	10	n/a	n/a	n/a	n/a	n/a	n/a	n/a	n/a	2000	0	BLOCKED	n/a	n/a	+	0	hostile	At this moment	1	3	14	189	NONE	n/a	0	5007.93353675735	-3.58235158146373	0.000843683585974571	16.5715886859597	1250.14606741573	0	1494.25778459157	-0.0384411501006451	-5.57519685262475e-05	68.5892512813772	1412.29362029208	2	3	0	1	0	1	0
187.246807760391	5.17051242268829	panas_none	192.41732018308	36	5	6	10	n/a	n/a	n/a	n/a	n/a	n/a	n/a	n/a	2000	0	BLOCKED	n/a	n/a	+	0	inspired	At this moment	4	3	14	189	NONE	n/a	0.176029962546816	-4538.65329265194	5.6045650423003	-0.00122673978141294	23.2680376380135	1768.19090909091	0.289777094542659	n/a	n/a	n/a	n/a	1526.86904761905	2	4	0	1	0	1	0
193.401498268653	2.5186689422205	reward_rtpj	195.920167210873	37	1	7	10	750	250	250	250	0	0	0	0	2000	0	BLOCKED	0.75	1	7	1	nervous	At this moment	1	3	14	189	RTPJ	606.58652863279	0.374531835205993	n/a	n/a	n/a	n/a	1475.0998003992	0	1013.04778380371	0.995713591036983	-0.000271313611213274	12.0353481981915	1624.99154496541	1	1	1	0	0	0	0
196.92090982179	2.51877402202041	reward_rtpj	199.43968384381	38	1	7	10	750	250	250	250	0	0	0	0	2000	0	BLOCKED	0.75	-1	8	-1	attentive	At this moment	4	3	14	189	RTPJ	539.717342399061	0	7309.54285619584	-5.23833278629226	0.00115840031314722	58.981605307323	1480.53308364544	0	989.624441833616	0.885949657033912	-0.000315452719378012	22.9485015169818	1479.4289008455	0	2	1	0	0	0	0
200.440481110319	2.51874369697646	reward_rtpj	202.959224807296	39	1	7	10	750	250	250	250	0	0	0	0	2000	0	BLOCKED	0.75	1	8	1	ashamed	At this moment	1	3	14	189	RTPJ	473.926810864359	0	12008.9030081948	-9.9997363654193	0.0023368859057085	23.1977683755297	1432.74157303371	0.232897770945427	1072.53258098257	0.638016348246196	-0.000225423214587859	15.5496921915634	1431.78557114228	1	3	1	0	0	0	0
203.960034768015	2.51878354267032	reward_rtpj	206.478818310685	40	1	7	10	750	250	250	250	0	0	0	0	2000	0	BLOCKED	0.75	-1	6	-1	excited	At this moment	3	3	14	189	RTPJ	422.900343447924	0	6304.90276498712	-4.352635512855	0.000939169473898008	55.4977060693754	1356.61672908864	0.242121445042275	909.166191949299	0.708890166535513	-0.000202014618384834	27.6575461255043	1339.1906693712	1	4	1	0	0	0	0
207.479473472644	2.51879094762356	reward_rtpj	209.998264420267	41	1	7	10	750	250	250	250	0	0	0	0	2000	0	BLOCKED	0.75	-1	2	1	irritable	At this moment	4	3	14	189	RTPJ	490.136956352741	0	10143.5204622077	-8.64084930139032	0.00205019608960062	30.3126037773584	1145.37453183521	0.239046887009992	799.482726808888	0.685652547776624	-0.000273182479844877	35.3910803914339	1157.85050505051	1	5	1	0	0	0	0
210.99908425425	2.518869933784	reward_rtpj	213.517954188034	42	1	7	10	750	250	250	250	0	0	0	0	2000	0	BLOCKED	0.75	1	9	1	afraid	At this moment	4	3	14	189	RTPJ	422.908453635871	0.374531835205993	n/a	n/a	n/a	n/a	1212.83632734531	0	761.69295054958	0.720672418122967	-0.0003057410223537	27.7727871170962	1111.51652574942	1	6	1	0	0	0	0
214.518635796245	2.51873840772734	reward_rtpj	217.037374203973	43	1	7	10	750	250	250	250	0	0	0	0	2000	0	BLOCKED	0.75	-1	2	1	enthusiastic	At this moment	1	3	14	189	RTPJ	390.646840203553	0	4960.10020448973	-3.68417861559768	0.000863016186770058	22.3933536350651	1053.76404494382	0	522.255358127705	1.23487978657882	-0.000547818578482833	25.2477429805559	1100.83627978478	0	7	1	0	0	0	0
218.038072032556	2.51870773006604	reward_rtpj	220.556779762622	44	1	7	10	750	250	250	250	0	0	0	0	2000	0	BLOCKED	0.75	1	8	1	proud	At this moment	2	3	14	189	RTPJ	373.608750540763	0	3535.13122807315	-2.35957782866813	0.0005753989264823	41.6285114471575	1148.5543071161	0.278247501921599	n/a	n/a	n/a	n/a	1045.05005324814	1	8	1	0	0	0	0
221.557713139206	6.02161258701236	panas_none	227.579325726219	45	5	8	10	n/a	n/a	n/a	n/a	n/a	n/a	n/a	n/a	2000	0	BLOCKED	n/a	n/a	+	0	irritable	At this moment	2	3	14	189	NONE	n/a	0	-1144.86001674125	2.16000677335093	-0.000452622205113849	12.2569063269933	1370.75530586767	0	611.80669460068	1.15334408538733	-0.000524193279369263	97.5943844223472	1146.53727901614	2	1	0	1	0	1	0
228.579987940513	6.02159142999722	panas_none	234.60157937051	46	5	8	10	n/a	n/a	n/a	n/a	n/a	n/a	n/a	n/a	2000	0	BLOCKED	n/a	n/a	+	0	attentive	At this moment	3	3	14	189	NONE	n/a	0	-2510.34379635153	3.70239703385408	-0.000891431843612776	33.2021019363739	1286.0836454432	0	1178.83232985008	-0.244732100647869	0.000250166204097379	23.470849834549	1186.32590315142	2	2	0	1	0	1	0
235.585749698516	6.02155052645878	panas_none	241.607300224975	47	5	8	10	n/a	n/a	n/a	n/a	n/a	n/a	n/a	n/a	2000	0	BLOCKED	n/a	n/a	+	0	guilty	At this moment	1	3	14	189	NONE	n/a	0	-562.107698755209	1.65009654373103	-0.000367772000711761	45.0860158446561	1262.51810237203	0	1035.61107028413	0.0904253090026685	3.74041959588828e-05	28.2882859742141	1144.99769408148	2	3	0	1	0	1	0
242.608049182989	14.0949251394607	panas_none	256.702974322449	48	5	8	10	n/a	n/a	n/a	n/a	n/a	n/a	n/a	n/a	2000	0	BLOCKED	n/a	n/a	+	0	distressed	At this moment	4	3	14	189	NONE	n/a	0	3447.14784303762	-2.07006456227643	0.000567600039910265	13.3357199826438	1632.93757802747	0.461183704842429	n/a	n/a	n/a	n/a	1308.03994293866	6	4	0	1	0	1	0
257.703731743272	2.51876767491552	punish_vlpfc	260.222499418188	49	4	9	10	0	0	0	0	250	250	250	750	2000	0	BLOCKED	0.25	1	7	1	proud	At this moment	5	3	14	189	VLPFC	374.296705853194	0	7248.62338887627	-5.37677272392158	0.0011884189280792	20.2613456223722	1261.088639201	0	892.751550910588	0.76451270253859	-0.000218735787928419	15.7044728746713	1353.36894696387	0	1	0	0	1	0	0
261.223268475361	2.51871866118159	punish_vlpfc	263.741987136543	50	4	9	10	0	0	0	0	250	250	250	750	2000	0	BLOCKED	0.25	-1	9	-1	attentive	At this moment	5	3	14	189	VLPFC	390.63590907678	0	4174.66835903117	-2.64144975324157	0.000638499340306465	14.6798306243665	1478.30586766542	0	779.34729947892	0.514793050762383	6.11759790104549e-06	25.5750673270153	1222.60491929285	0	2	0	0	1	0	0
264.725991029434	2.51919257811829	punish_vlpfc	267.245183607552	51	4	9	10	0	0	0	0	250	250	250	750	2000	0	BLOCKED	0.25	-1	9	-1	ashamed	At this moment	5	3	14	189	VLPFC	357.961028795689	0	3073.31835203055	-1.80644869586867	0.000439282992045108	21.5837873462997	1240.92384519351	0.259031514219831	n/a	n/a	n/a	n/a	1239.91078838174	1	3	0	0	1	0	0
268.245936796974	2.51844432533534	punish_vlpfc	270.76438112231	52	4	9	10	0	0	0	0	250	250	250	750	2000	0	BLOCKED	0.25	-1	2	1	irritable	At this moment	3	3	14	189	VLPFC	356.020226098597	0	3843.22441651394	-2.49456708212618	0.000580241305449428	33.5551470328431	1194.50312109863	0.285933897002306	n/a	n/a	n/a	n/a	1121.30785791173	1	4	0	0	1	0	0
271.765186146393	2.51868410474435	punish_vlpfc	274.283870251138	53	4	9	10	0	0	0	0	250	250	250	750	2000	0	BLOCKED	0.25	1	3	-1	upset	At this moment	5	3	14	189	VLPFC	390.066080383956	0	4192.98682122501	-3.41303228850339	0.000894781782834899	18.049204035619	1019.33957553059	0.233666410453497	446.512168627328	1.38012206961543	-0.000682752333744587	56.132622432264	999.25777331996	1	5	0	0	1	0	0
275.284574074205	2.51870349866522	punish_vlpfc	277.80327757287	54	4	9	10	0	0	0	0	250	250	250	750	2000	0	BLOCKED	0.25	1	1	-1	strong	At this moment	1	3	14	189	VLPFC	423.047032028437	0	3368.52408450901	-2.20280248186722	0.000469250598798131	14.5078145062328	836.983770287141	0.264411990776326	n/a	n/a	n/a	n/a	999.98223615465	1	6	0	0	1	0	0
278.787832253151	2.51838297002388	punish_vlpfc	281.306215223175	55	4	9	10	0	0	0	0	250	250	250	750	2000	0	BLOCKED	0.25	1	3	-1	interested	At this moment	2	3	14	189	VLPFC	473.058315761387	0	1943.2587877407	-0.756636414027046	0.000149970879545721	14.1137534565555	1023.50561797753	0	533.646823851374	0.866629252400368	-0.000359408647623175	23.1879304496604	968.528055342045	1	7	0	0	1	0	0
282.30704175688	2.51875956472753	punish_vlpfc	284.825801321607	56	4	9	10	0	0	0	0	250	250	250	750	2000	0	BLOCKED	0.25	1	0	-1	attentive	At this moment	2	3	14	189	VLPFC	456.393999874592	0	2951.47570365058	-1.42231997094276	0.000326963898072651	21.5115387812956	1424.00124843945	0.248270561106841	741.622233856921	0.535009882726739	-2.394478726847e-05	15.6025518505088	1143.92024539877	1	8	0	0	1	0	0
285.826484340291	6.02163409663365	panas_none	291.848118436925	57	5	10	10	n/a	n/a	n/a	n/a	n/a	n/a	n/a	n/a	2000	0	BLOCKED	n/a	n/a	+	0	jittery	At this moment	1	3	14	189	NONE	n/a	0	441.255671386828	0.521551670977673	-3.43832252805454e-05	17.4682547496983	1382.85642946317	0	781.701447308405	0.52574638919671	-0.000205101278657442	73.1398690819883	1058.00691775557	3	1	0	1	0	0	1
292.848972122122	6.02152584328127	panas_none	298.870497965403	58	5	10	10	n/a	n/a	n/a	n/a	n/a	n/a	n/a	n/a	2000	0	BLOCKED	n/a	n/a	+	0	irritable	At this moment	3	3	14	189	NONE	n/a	0.239700374531835	2175.2940547362	-0.584828135394732	9.60508729242809e-05	11.5827040581369	1392.24630541872	0	1091.47055961186	0.471219214130311	-0.000131901941130093	34.1040651923273	1378.6664104535	2	2	0	1	0	0	1
299.854631621264	6.02152619589862	panas_none	305.876157817163	59	5	10	10	n/a	n/a	n/a	n/a	n/a	n/a	n/a	n/a	2000	0	BLOCKED	n/a	n/a	+	0	strong	At this moment	2	3	14	189	NONE	n/a	0	3294.03561055703	-1.83777443210973	0.000393287891467026	21.3824445163268	1189.74781523096	0	962.443973344165	-0.0893060486711597	0.000131621850823452	23.2949992197854	1000.87240584166	1	3	0	1	0	0	1
306.877019612547	7.25596662835028	panas_none	314.132986240897	60	5	10	10	n/a	n/a	n/a	n/a	n/a	n/a	n/a	n/a	2000	0	BLOCKED	n/a	n/a	+	0	upset	At this moment	4	3	14	189	NONE	n/a	0.384519350811486	n/a	n/a	n/a	n/a	1717.1014198783	0.230591852421214	824.766161435667	0.525712770203919	-9.79335971771424e-05	15.2253235850011	1218.4965034965	3	4	0	1	0	0	1
315.133698879387	2.51880893107875	punish_vlpfc	317.652507810466	61	4	11	10	0	0	0	0	250	250	250	750	2000	0	BLOCKED	0.25	1	4	-1	proud	At this moment	4	3	14	189	VLPFC	390.279766146094	0	5090.48412172743	-3.14019782009706	0.000736020076821622	20.2839276968502	1781.14481897628	0.239046887009992	886.50378733998	1.07671787956031	-0.000252096157912827	47.0205789739833	1564.03232323232	1	1	0	0	1	0	0
318.653290267076	2.51867634717001	punish_vlpfc	321.171966614246	62	4	11	10	0	0	0	0	250	250	250	750	2000	0	BLOCKED	0.25	1	0	-1	enthusiastic	At this moment	4	3	14	189	VLPFC	373.522359427065	0.374531835205993	n/a	n/a	n/a	n/a	1530.57285429142	0.272867025365104	n/a	n/a	n/a	n/a	1529.50105708245	2	2	0	0	1	0	0
322.172690536477	2.51876026996223	punish_vlpfc	324.691450806439	63	4	11	10	0	0	0	0	250	250	250	750	2000	0	BLOCKED	0.25	1	7	1	alert	At this moment	5	3	14	189	VLPFC	407.282241508365	0	13246.2572340233	-10.6150402114813	0.00237319045792067	18.1696304837878	1513.96878901373	0	868.545111988252	0.585608109180047	-7.77912635123905e-05	12.7472458411882	1299.26979246733	0	3	0	0	1	0	0
325.692289329115	2.51873170800508	punish_vlpfc	328.21102103712	64	4	11	10	0	0	0	0	250	250	250	750	2000	0	BLOCKED	0.25	-1	6	-1	ashamed	At this moment	1	3	14	189	VLPFC	339.420439075679	0	2532.09363861486	-1.10976810261342	0.000302270067335558	26.4976916943092	1550.74157303371	0.230591852421214	825.588951402298	0.80408475611273	-0.00025417968121546	34.1693119810594	1299.42557442557	1	4	0	0	1	0	0
329.211886358671	2.51870878791436	punish_vlpfc	331.730595146585	65	4	11	10	0	0	0	0	250	250	250	750	2000	0	BLOCKED	0.25	-1	3	1	jittery	At this moment	2	3	14	189	VLPFC	373.432089533657	0	10594.5498896092	-8.71715364417184	0.00202373573405705	36.7023305011086	1321.1797752809	0	963.427096530099	0.583076990158874	-0.000162201227462136	20.8625917427675	1318.57263643351	0	5	0	0	1	0	0
332.714582466487	2.51874863360825	punish_vlpfc	335.233331100095	66	4	11	10	0	0	0	0	250	250	250	750	2000	0	BLOCKED	0.25	-1	7	-1	interested	At this moment	2	3	14	189	VLPFC	458.104543820024	0.374531835205993	n/a	n/a	n/a	n/a	1299.93812375249	0	976.218434034261	0.559164182241001	-0.000147031482491948	21.5417271740765	1324.41275941583	1	6	0	0	1	0	0
336.23416468614	2.51875392286109	punish_vlpfc	338.752918609001	67	4	11	10	0	0	0	0	250	250	250	750	2000	0	BLOCKED	0.25	-1	8	-1	excited	At this moment	1	3	14	189	VLPFC	390.900371659547	0	-116.043145092624	1.27439267580752	-0.00031118101225325	20.0723902571899	1171.37078651685	0	589.706261597813	0.838856371074119	-0.000358734803956917	21.2352696376806	994.060722521138	0	7	0	0	1	0	0
339.753808966342	2.5186209863424	punish_vlpfc	342.272429952685	68	4	11	10	0	0	0	0	250	250	250	750	2000	0	BLOCKED	0.25	-1	7	-1	attentive	At this moment	1	3	14	189	VLPFC	506.256126716733	0	2910.44098183739	-1.30200119302729	0.000304891274734821	22.7811038439566	1536.90511860175	0.235972328977709	796.623642488377	1.33343178057952	-0.00056871838521624	20.1728537146688	1466.48189134809	1	8	0	0	1	0	0
343.256521294527	6.02173459241169	panas_none	349.278255886938	69	5	12	10	n/a	n/a	n/a	n/a	n/a	n/a	n/a	n/a	2000	0	BLOCKED	n/a	n/a	+	0	ashamed	At this moment	1	3	14	189	NONE	n/a	0	-677.357590935596	1.34665040145515	-0.000208747095531966	12.8887718983927	1218.52933832709	0	629.89805987358	0.772079423189762	-0.000373183877685133	93.666274826539	970.96003074558	4	1	0	1	0	0	1
350.278967114963	6.02151526477934	panas_none	356.300482379742	70	5	12	10	n/a	n/a	n/a	n/a	n/a	n/a	n/a	n/a	2000	0	BLOCKED	n/a	n/a	+	0	guilty	At this moment	1	3	14	189	NONE	n/a	0.444444444444444	n/a	n/a	n/a	n/a	1222.19325842697	0	1271.13913849274	0.109851968770841	-7.34661961101339e-05	17.9519311431843	1300.95926210607	1	2	0	1	0	0	1
357.301214764774	6.02168275774648	panas_none	363.32289752252	71	5	12	10	n/a	n/a	n/a	n/a	n/a	n/a	n/a	n/a	2000	0	BLOCKED	n/a	n/a	+	0	afraid	At this moment	1	3	14	189	NONE	n/a	0	6311.94163953423	-5.01650090311151	0.00120246779784048	10.1166485266529	1144.89762796504	0	1198.15787524684	-0.126642084150661	0.00010853369957382	29.6924949925253	1184.1329746349	1	3	0	1	0	0	1
364.323711714637	7.73959463176129	panas_none	372.063306346398	72	5	12	10	n/a	n/a	n/a	n/a	n/a	n/a	n/a	n/a	2000	0	BLOCKED	n/a	n/a	+	0	enthusiastic	At this moment	3	3	14	189	NONE	n/a	0	-908.80456034465	2.02169997287731	-0.000391125965230658	15.9575067991435	1591.13233458177	0.249039200614912	883.192417125754	0.337256413089591	-1.51682416550315e-05	18.3081317571875	1173.74923234391	3	4	0	1	0	0	1
373.064133937955	2.518841019202	punish_rtpj	375.582974957157	73	3	13	10	750	250	250	250	0	0	0	0	2000	0	BLOCKED	0.25	1	0	-1	nervous	At this moment	4	3	14	189	RTPJ	322.672200400382	0	3908.8657858679	-2.51364074048823	0.000653432689065704	14.4984496155973	1545.51186017478	0.238278247501922	841.458376144701	1.44397911878965	-0.000693071202896064	34.845989404954	1441.48032290616	1	1	0	0	1	0	0
376.583567353331	2.5189640824571	punish_rtpj	379.102531435788	74	3	13	10	750	250	250	250	0	0	0	0	2000	0	BLOCKED	0.25	-1	9	-1	irritable	At this moment	5	3	14	189	RTPJ	474.122865788639	0.374531835205993	n/a	n/a	n/a	n/a	1501.41317365269	0.230591852421214	905.860566291413	0.595569157015804	-0.000130882681348451	49.2845114678998	1318.17782217782	2	2	0	0	1	0	0
380.086412265424	2.51877331678571	punish_rtpj	382.605185582209	75	3	13	10	750	250	250	250	0	0	0	0	2000	0	BLOCKED	0.25	1	4	-1	alert	At this moment	4	3	14	189	RTPJ	423.055847447366	0	3284.55177763784	-1.54130361067848	0.000352588878449628	26.7066346056444	1621.86392009988	0	1115.06615753849	0.61226015396249	-0.000181241507646407	43.5401926983864	1478.32052267487	0	3	0	0	1	0	0
383.606024104886	2.51872712398693	punish_rtpj	386.124751228873	76	3	13	10	750	250	250	250	0	0	0	0	2000	0	BLOCKED	0.25	1	6	1	enthusiastic	At this moment	4	3	14	189	RTPJ	407.77167358622	0	6691.55760836364	-5.33626575987159	0.0012866715171755	20.5195169707473	1228.55305867665	0.289008455034589	n/a	n/a	n/a	n/a	1311.47783783784	1	4	0	0	1	0	0
387.125550963704	2.51873276585718	punish_rtpj	389.644283729561	77	3	13	10	750	250	250	250	0	0	0	0	2000	0	BLOCKED	0.25	-1	3	1	guilty	At this moment	1	3	14	189	RTPJ	372.864729154855	0	4993.11696607544	-3.83606676894093	0.00095682682364474	34.6410512142524	1207.19850187266	0.238278247501922	705.927489647481	0.521442194808507	-0.000105825833914963	28.2600479106717	1033.72855701312	1	5	0	0	1	0	0
390.644987905245	2.51877402202041	punish_rtpj	393.163761927266	78	3	13	10	750	250	250	250	0	0	0	0	2000	0	BLOCKED	0.25	1	4	-1	interested	At this moment	3	3	14	189	RTPJ	373.201830785722	0	2283.78994318218	-1.17076617693329	0.00027810548116107	10.5485784868022	1066.51810237203	0	740.87602697868	0.947701181731868	-0.000452188012681227	20.620341994511	1156.57955418909	0	6	0	0	1	0	0
394.164879369806	2.51845384598897	punish_rtpj	396.683333215795	79	3	13	10	750	250	250	250	0	0	0	0	2000	0	BLOCKED	0.25	1	0	-1	active	At this moment	1	3	14	189	RTPJ	456.546330317855	0	939.532880671308	-0.0942817833270612	7.5802747503312e-05	10.5761398146639	1079.77153558052	0.230591852421214	801.908935242748	0.154966042948677	3.71135955170234e-06	14.8491472685627	929.236763236763	1	7	0	0	1	0	0
397.667494375765	2.51866365296763	punish_rtpj	400.186158028733	80	3	13	10	750	250	250	250	0	0	0	0	2000	0	BLOCKED	0.25	-1	6	-1	inspired	At this moment	4	3	14	189	RTPJ	339.565011952072	0	-2320.68915804867	3.45719666340362	-0.000785249263653636	14.7256629031639	1434.81897627965	0	1010.98506015988	0.313423007667139	-0.00013107775497887	23.9751490992417	1164.46887009992	0	8	0	0	1	0	0
401.170226450492	6.02161152915659	panas_none	407.191837979648	81	5	14	10	n/a	n/a	n/a	n/a	n/a	n/a	n/a	n/a	2000	0	BLOCKED	n/a	n/a	+	0	enthusiastic	At this moment	2	3	14	189	NONE	n/a	0	-182.720100815742	0.598775255771225	-8.93877031290935e-06	10.4439666900902	1034.8202247191	0	716.731170175535	0.291013722868601	-0.000183720324939823	50.9296939961212	810.453497309762	2	1	0	1	0	0	0
408.192660987191	6.02146660366657	panas_none	414.214127590857	82	5	14	10	n/a	n/a	n/a	n/a	n/a	n/a	n/a	n/a	2000	0	BLOCKED	n/a	n/a	+	0	distressed	At this moment	2	3	14	189	NONE	n/a	0	3326.61455301132	-2.45449406220573	0.000650365926756989	17.5901832749582	1074.83395755306	0	914.547144637099	0.0125432580147981	4.56369014530921e-06	23.597844355068	928.860876249039	1	2	0	1	0	0	0
415.215004196141	6.02161047130824	panas_none	421.236614667449	83	5	14	10	n/a	n/a	n/a	n/a	n/a	n/a	n/a	n/a	2000	0	BLOCKED	n/a	n/a	+	0	active	At this moment	1	3	14	189	NONE	n/a	0	186.698931538624	0.626754398489345	-9.81665425217661e-05	22.1191121006268	1064.80774032459	0	950.34288488705	-0.432088708540391	0.000266985758684268	15.0745513719282	812.636433512683	1	3	0	1	0	0	0
422.23735022603	8.13999837796013	panas_none	430.37734860399	84	5	14	10	n/a	n/a	n/a	n/a	n/a	n/a	n/a	n/a	2000	0	BLOCKED	n/a	n/a	+	0	excited	At this moment	1	3	14	189	NONE	n/a	0.374531835205993	n/a	n/a	n/a	n/a	1563.81437125748	0.275172943889316	n/a	n/a	n/a	n/a	990.849416755037	2	4	0	1	0	0	0
431.361514700595	2.51869609371198	punish_rtpj	433.880210794307	85	3	15	10	750	250	250	250	0	0	0	0	2000	0	BLOCKED	0.25	1	2	-1	attentive	At this moment	1	3	14	189	RTPJ	423.388717673719	0.374531835205993	n/a	n/a	n/a	n/a	1256.70459081836	0	551.450219649653	0.558416322183057	-0.00022462323877926	22.9979070917148	834.86856264412	1	1	0	0	1	0	0
434.880980204098	2.51876908538122	punish_rtpj	437.399749289479	86	3	15	10	750	250	250	250	0	0	0	0	2000	0	BLOCKED	0.25	1	7	1	proud	At this moment	2	3	14	189	RTPJ	374.258975859731	0	3382.29828626157	-2.05726587149512	0.000485379121321167	14.6131682849759	1227.65792759051	0.25826287471176	n/a	n/a	n/a	n/a	1237.1481865285	1	2	0	0	1	0	0
438.400556076646	2.51872641875593	punish_rtpj	440.919282495402	87	3	15	10	750	250	250	250	0	0	0	0	2000	0	BLOCKED	0.25	1	3	-1	hostile	At this moment	1	3	14	189	RTPJ	590.437385842204	0	2096.92339549015	-1.19218294863927	0.000358485796679498	24.1723750676822	1193.22721598002	0.458877786318217	n/a	n/a	n/a	n/a	1016.62642045455	3	3	0	0	1	0	0
441.920064599395	2.51889355910197	punish_rtpj	444.438958158497	88	3	15	10	750	250	250	250	0	0	0	0	2000	0	BLOCKED	0.25	1	2	-1	excited	At this moment	2	3	14	189	RTPJ	472.888354480267	0	2161.33976546324	-1.4919151671025	0.000495703453345668	10.84977179889	1240.66167290886	0.269792467332821	n/a	n/a	n/a	n/a	1068.44842105263	1	4	0	0	1	0	0
445.43952975028	2.51876379613208	punish_rtpj	447.958293546412	89	3	15	10	750	250	250	250	0	0	0	0	2000	0	BLOCKED	0.25	-1	7	-1	afraid	At this moment	5	3	14	189	RTPJ	373.571020543575	0	2627.48329234274	-1.61328091585866	0.00033275623902356	9.85218768633352	724.590511860175	0.583397386625673	n/a	n/a	n/a	n/a	865.177121771218	1	5	0	0	1	0	0
448.95900724275	2.51883502471821	punish_rtpj	451.477842267469	90	3	15	10	750	250	250	250	0	0	0	0	2000	0	BLOCKED	0.25	-1	9	-1	enthusiastic	At this moment	3	3	14	189	RTPJ	406.321360819042	0	477.099017516554	0.407122713301736	-0.000133118056060797	8.4013857319281	738.284644194757	0.583397386625673	n/a	n/a	n/a	n/a	1030.32656826568	1	6	0	0	1	0	0
452.478638828751	2.51871090361846	punish_rtpj	454.997349732369	91	3	15	10	750	250	250	250	0	0	0	0	2000	0	BLOCKED	0.25	-1	6	-1	ashamed	At this moment	3	3	14	189	RTPJ	457.000500716269	0	-1925.99477772908	2.64566986769484	-0.000523558435080817	13.8758653980217	1293.49188514357	0.475787855495772	n/a	n/a	n/a	n/a	877.626099706745	10	7	0	0	1	0	0
455.998375494547	2.51855963102355	punish_rtpj	458.516935125571	92	3	15	10	750	250	250	250	0	0	0	0	2000	0	BLOCKED	0.25	-1	3	1	active	At this moment	5	3	14	189	RTPJ	457.165525365621	0	4254.31434044813	-3.13789599361101	0.000756087615791984	9.65414480007608	1039.40948813983	0	767.287294983116	0.516734651420355	-0.000240806378894977	18.5817962588772	998.850883935434	0	8	0	0	1	0	0
459.517687609754	6.02156392589586	panas_none	465.53925153565	93	5	16	10	n/a	n/a	n/a	n/a	n/a	n/a	n/a	n/a	2000	0	BLOCKED	n/a	n/a	+	0	distressed	At this moment	2	3	14	189	NONE	n/a	0.247191011235955	-9940.34540105721	10.2212075756006	-0.0022837546398093	15.6157145649444	1400.2039800995	0	484.255247387736	1.09915478450346	-0.000522859291154958	80.0673498710505	971.957724827056	4	1	0	1	0	0	0
466.540062554218	6.02161999196187	panas_none	472.56168254618	94	5	16	10	n/a	n/a	n/a	n/a	n/a	n/a	n/a	n/a	2000	0	BLOCKED	n/a	n/a	+	0	excited	At this moment	1	3	14	189	NONE	n/a	0	10540.4551949337	-8.77313838090368	0.0020770381792479	13.1361099005277	1386.54057428215	0.229823212913144	1385.52005810723	0.974477788953943	-0.000546249946365433	22.789407006181	1704.09381237525	3	2	0	1	0	0	0
473.562422336161	6.02160447682064	panas_none	479.584026812982	95	5	16	10	n/a	n/a	n/a	n/a	n/a	n/a	n/a	n/a	2000	0	BLOCKED	n/a	n/a	+	0	interested	At this moment	2	3	14	189	NONE	n/a	0	4411.6189794544	-3.24730010841757	0.000812185465671859	10.9430280829691	1217.41573033708	0	1227.10027904978	-0.226847234950711	0.000195117442927131	22.5002217308155	1202.9715603382	1	3	0	1	0	0	0
480.5847232311	6.65549376926572	panas_none	487.240217000365	96	5	16	10	n/a	n/a	n/a	n/a	n/a	n/a	n/a	n/a	2000	0	BLOCKED	n/a	n/a	+	0	scared	At this moment	3	3	14	189	NONE	n/a	0	10731.3804795855	-8.40398408654238	0.00192042601810094	23.8859779850084	1631.9038701623	0.255188316679477	n/a	n/a	n/a	n/a	1588.65221878225	2	4	0	1	0	0	0
