onset	duration	trial_type	offset	trial	block	blockCntr	frequency	amplitude_1	amplitude_2	amplitude_3	amplitude_4	amplitude_5	amplitude_6	amplitude_7	amplitude_8	transition	sham	mode	rewardFraction	guess	outcome	correct	word	when	answer	runNr	scanNr	subjectNr	target	reactionTime	outcomeEyeClosed	outcomeParms_1	outcomeParms_2	outcomeParms_3	outcomeSigma	outcomePupilArea	guessEyeClosed	guessParms_1	guessParms_2	guessParms_3	guessSigma	guessPupilArea	nrBlinks	trialInBlock	isReward	isPanas	isPunish	beforePanasReward	beforePanasVLPFC
20.3603242663816	2.55433612840995	punish_vlpfc	22.9146603947915	1	4	1	10	0	0	0	0	250	250	250	750	2000	0	BLOCKED	0.25	1	2	-1	enthusiastic	At this moment	3	1	8	189	VLPFC	776.706841472536	0.374531835205993	n/a	n/a	n/a	n/a	1951.02994011976	0	1833.22518318393	0.0367520849386105	0.000134993468552466	35.7960086847605	1980.4289008455	1	1	0	0	1	0	0
23.9154216943979	2.51878953715414	punish_vlpfc	26.4342112315521	2	4	1	10	0	0	0	0	250	250	250	750	2000	0	BLOCKED	0.25	-1	7	-1	strong	At this moment	5	1	8	189	VLPFC	607.519552599639	0.374531835205993	n/a	n/a	n/a	n/a	2043.6626746507	0	1410.33114000866	0.756617689036144	-0.000133749197582687	46.4643608047312	1937.23981552652	1	2	0	0	1	0	0
27.4349686523713	2.51881245724484	punish_vlpfc	29.9537811096162	3	4	1	10	0	0	0	0	250	250	250	750	2000	0	BLOCKED	0.25	1	4	-1	alert	At this moment	4	1	8	189	VLPFC	490.739578410983	0.374531835205993	n/a	n/a	n/a	n/a	1706.41716566866	0	1366.30949394159	0.896829592154376	-0.000358673704570648	27.9176825094235	1817.65026902383	1	3	0	0	1	0	0
30.9378742145486	2.51870808267966	punish_vlpfc	33.4565822972283	4	4	1	10	0	0	0	0	250	250	250	750	2000	0	BLOCKED	0.25	1	10	1	afraid	At this moment	3	1	8	189	VLPFC	673.709951549768	0.374531835205993	n/a	n/a	n/a	n/a	1600.16367265469	0	1389.32120164158	0.254307397202203	0.000121564027748687	34.8252689792295	1708.63489623367	1	4	0	0	1	0	0
34.4407198318727	2.51875074931234	punish_vlpfc	36.9594705811851	5	4	1	10	0	0	0	0	250	250	250	750	2000	0	BLOCKED	0.25	-1	8	-1	guilty	At this moment	1	1	8	189	VLPFC	474.10629280284	0	10851.8859947827	-8.44044850546867	0.00192280287198949	19.6393300286841	1708.24843945069	0	1181.45987406679	1.09361706568785	-0.000367363328773933	20.7890748748579	1793.70253651038	0	5	0	0	1	0	0
37.960183219675	2.51868093118816	punish_vlpfc	40.4788641508631	6	4	1	10	0	0	0	0	250	250	250	750	2000	0	BLOCKED	0.25	1	8	1	excited	At this moment	3	1	8	189	VLPFC	524.040706083179	0.398252184769039	n/a	n/a	n/a	n/a	1494.20331950207	0	909.525410502947	1.00283105041354	-0.000274730570162064	17.3449127874455	1546.63028439662	1	6	0	0	1	0	0
41.4630295422375	2.51876132781431	punish_vlpfc	43.9817908700518	7	4	1	10	0	0	0	0	250	250	250	750	2000	0	BLOCKED	0.25	1	3	-1	inspired	At this moment	4	1	8	189	VLPFC	624.747350081801	0	4397.66198177877	-2.45682952379539	0.000539939877638864	29.3297704246124	1647.86891385768	0.230591852421214	1183.01119535927	1.00744734911249	-0.000500787057436914	53.65091474272	1585.40559440559	1	7	0	0	1	0	0
44.982678759072	2.51868727829308	punish_vlpfc	47.5013660373651	8	4	1	10	0	0	0	0	250	250	250	750	2000	0	BLOCKED	0.25	1	3	-1	alert	At this moment	3	1	8	189	VLPFC	406.494143038988	0.374531835205993	n/a	n/a	n/a	n/a	1833.47105788423	0	1147.22056812473	1.19834099755298	-0.000455857503307609	30.6973268536274	1773.47501921599	1	8	0	0	1	0	0
48.5164950598404	6.00720043442399	panas_none	54.5236954942644	9	5	2	10	n/a	n/a	n/a	n/a	n/a	n/a	n/a	n/a	2000	0	BLOCKED	n/a	n/a	+	0	jittery	At this moment	4	1	8	189	NONE	n/a	0	390.371499444626	0.635473212235881	-9.57474107419754e-05	27.6140863935676	1297.53308364544	0	575.646288460213	1.29684886713283	-0.00070244482302297	62.4724395874185	1076.40353574174	1	1	0	1	0	0	1
55.5078203347027	6.02156463113054	panas_none	61.5293849658333	10	5	2	10	n/a	n/a	n/a	n/a	n/a	n/a	n/a	n/a	2000	0	BLOCKED	n/a	n/a	+	0	irritable	At this moment	3	1	8	189	NONE	n/a	0	4598.36831735058	-2.78233237353004	0.000632053216938831	21.8947698225529	1576.99625468165	0	1594.19704557114	0.425524862028099	-0.000112167315810439	26.2768643394488	1858.96541122214	1	2	0	1	0	0	1
62.513445277404	6.02165560625493	panas_none	68.535100883659	11	5	2	10	n/a	n/a	n/a	n/a	n/a	n/a	n/a	n/a	2000	0	BLOCKED	n/a	n/a	+	0	determined	At this moment	4	1	8	189	NONE	n/a	0	-596.632290923977	1.92113910032873	-0.000438012999017188	32.2770448902675	1483.37827715356	0	1629.6292452329	-0.157383177445174	5.21554749933773e-05	44.1972423951614	1540.2759415834	1	3	0	1	0	0	1
69.5359499848373	12.5935947163924	panas_none	82.1295447012298	12	5	2	10	n/a	n/a	n/a	n/a	n/a	n/a	n/a	n/a	2000	0	BLOCKED	n/a	n/a	+	0	distressed	At this moment	3	1	8	189	NONE	n/a	0	-2362.33956594488	4.56685655698356	-0.00111795876920195	26.161237941623	2238.49188514357	0.382782475019216	n/a	n/a	n/a	n/a	1833.69489414695	7	4	0	1	0	0	1
83.1135281423442	2.51868692567572	reward_vlpfc	85.6322150680199	13	2	3	10	0	0	0	0	250	250	250	750	2000	0	BLOCKED	0.75	1	10	1	nervous	At this moment	1	1	8	189	VLPFC	506.914109610021	0	15217.9828915307	-12.5898107631591	0.00286731449484941	18.4656704120307	1548.04868913858	0	1013.7129268309	0.908831225360939	-0.000203182298607481	13.6856699309128	1610.13220599539	0	1	1	0	0	0	0
86.6164731976017	2.51865554278343	reward_vlpfc	89.1351287403852	14	2	3	10	0	0	0	0	250	250	250	750	2000	0	BLOCKED	0.75	-1	0	1	alert	At this moment	5	1	8	189	VLPFC	590.569264512509	0	14277.0528166114	-11.0555180825449	0.00237028310311461	28.1052508643921	1617.36828963795	0	1134.73851641493	0.714076480157471	-7.87847615003736e-05	52.7260028564688	1672.18216756341	0	2	1	0	0	0	0
90.1193424402513	2.51865730587021	reward_vlpfc	92.6379997461215	15	2	3	10	0	0	0	0	250	250	250	750	2000	0	BLOCKED	0.75	1	8	1	attentive	At this moment	2	1	8	189	VLPFC	640.002609360963	0	19891.988843766	-16.9191857364547	0.00384643983737407	18.5216811377927	1512.3720349563	0	1096.47361980905	0.898607097588009	-0.000239061316309216	29.1159524096655	1653.37970791699	0	3	1	0	0	0	0
93.6222578756958	2.51863227007911	reward_vlpfc	96.1408901457749	16	2	3	10	0	0	0	0	250	250	250	750	2000	0	BLOCKED	0.75	-1	10	-1	ashamed	At this moment	2	1	8	189	VLPFC	606.57312919572	0	6888.68785414021	-4.29748464772042	0.000868626443198637	64.2313047591292	1740.43071161049	0	1132.69744992806	0.640804622834176	-0.000112174470728736	23.7242862237003	1580.14219830899	0	4	1	0	0	0	0
97.1415735170692	2.51875815426558	reward_vlpfc	99.6603316713348	17	2	3	10	0	0	0	0	250	250	250	750	2000	0	BLOCKED	0.75	1	9	1	strong	At this moment	4	1	8	189	VLPFC	590.359810154885	0	16386.8947467118	-13.5818608976844	0.00307606790178642	20.7130420920733	1577.81398252185	0	935.201462561001	0.959790531134294	-0.00021751777384125	14.7389949694744	1562.69254419677	0	5	1	0	0	0	0
100.64452386158	2.51873629202321	reward_vlpfc	103.163260153603	18	2	3	10	0	0	0	0	250	250	250	750	2000	0	BLOCKED	0.75	1	8	1	upset	At this moment	2	1	8	189	VLPFC	623.250139284879	0	20761.6966840412	-17.8979759850468	0.00410405817694842	28.4811033776069	1483.53433208489	0	1104.90845143522	0.714298864386473	-0.00014598613771076	10.348072293984	1585.82398155265	0	6	1	0	0	0	0
104.164024626758	2.51874440220743	reward_vlpfc	106.682769028965	19	2	3	10	0	0	0	0	250	250	250	750	2000	0	BLOCKED	0.75	-1	4	1	proud	At this moment	1	1	8	189	VLPFC	741.670486681163	0	11643.3343465656	-8.83414244918426	0.00192448481521945	73.6694008609293	1680.22846441948	0	1059.64440806623	0.774892430363464	-4.96007506747582e-05	15.4046989378692	1673.7432744043	0	7	1	0	0	0	0
107.683510582034	2.51893093647807	reward_vlpfc	110.202441518512	20	2	3	10	0	0	0	0	250	250	250	750	2000	0	BLOCKED	0.75	1	0	-1	inspired	At this moment	2	1	8	189	VLPFC	657.161293961108	0	5238.00215939198	-2.85463140980502	0.000568435596244929	47.6985134099539	1782.02247191011	0	1203.03195412428	0.757637581080953	-0.000202753499158005	11.4603020067816	1671.84473481937	0	8	1	0	0	0	0
111.186452816352	6.02149022898824	panas_none	117.20794304534	21	5	4	10	n/a	n/a	n/a	n/a	n/a	n/a	n/a	n/a	2000	0	BLOCKED	n/a	n/a	+	0	excited	At this moment	3	1	8	189	NONE	n/a	0	1917.14971038608	-0.658283569366508	0.000195074651788529	16.9770602694176	1405.66666666667	0.229823212913144	816.496643999639	0.70371617399269	-0.000284918336029571	84.8670542002299	1178.00698602794	3	1	0	1	0	1	1
118.20871915485	6.02169227840007	panas_none	124.23041143325	22	5	4	10	n/a	n/a	n/a	n/a	n/a	n/a	n/a	n/a	2000	0	BLOCKED	n/a	n/a	+	0	jittery	At this moment	3	1	8	189	NONE	n/a	0	-2481.30343142218	3.54134094623996	-0.000765200419102977	22.8621438536957	1540.3695380774	0	1604.02524133839	-0.723855048995106	0.000391336981418362	21.8342375432939	1327.17986164489	1	2	0	1	0	1	1
125.231169206683	6.02152513805031	panas_none	131.252694344733	23	5	4	10	n/a	n/a	n/a	n/a	n/a	n/a	n/a	n/a	2000	0	BLOCKED	n/a	n/a	+	0	distressed	At this moment	2	1	8	189	NONE	n/a	0	2312.03505082053	-1.00167857368162	0.00025970290708759	16.2806829365545	1368.04369538077	0	1381.13032037337	-0.306104583357804	0.000281911588300865	71.0981636668949	1363.85088393543	2	3	0	1	0	1	1
132.236750424907	14.5619734550081	panas_none	146.798723879915	24	5	4	10	n/a	n/a	n/a	n/a	n/a	n/a	n/a	n/a	2000	0	BLOCKED	n/a	n/a	+	0	irritable	At this moment	1	1	8	189	NONE	n/a	0.374531835205993	n/a	n/a	n/a	n/a	2018.72654690619	0.239046887009992	1314.08274137229	-0.0961430546644757	0.000551583082219847	28.3645660492344	1523.47474747475	9	4	0	1	0	1	1
147.782816984847	2.51866541605071	punish_rtpj	150.301482400898	25	3	5	10	750	250	250	250	0	0	0	0	2000	0	BLOCKED	0.25	1	1	-1	upset	At this moment	3	1	8	189	RTPJ	439.707116510719	0.374531835205993	n/a	n/a	n/a	n/a	2358.99201596806	0	1199.61304594722	0.625569224449561	7.58770916129171e-05	19.3588978076141	1796.49346656418	1	1	0	0	1	0	0
151.302336791329	2.51869715156406	punish_rtpj	153.821033942893	26	3	5	10	750	250	250	250	0	0	0	0	2000	0	BLOCKED	0.25	1	0	-1	determined	At this moment	5	1	8	189	RTPJ	606.965591657907	0	4294.64295520569	-1.78102068929032	0.000322641366461001	36.8074655542891	1994.62546816479	0	1238.97353400927	1.09478708262441	-0.000362803616394336	52.349081142241	1857.54573405073	0	2	0	0	1	0	0
154.821775848575	2.51883255640047	punish_rtpj	157.340608404975	27	3	5	10	750	250	250	250	0	0	0	0	2000	0	BLOCKED	0.25	-1	6	-1	ashamed	At this moment	4	1	8	189	RTPJ	774.045995328575	0.0212234706616729	-642.534268023399	2.71765705503689	-0.000625250689505316	17.9220945583191	2276.37117346939	0.06456571867794	1271.95755719625	0.844207930504207	-0.000178922400001939	17.7473151141387	1815.14954806902	1	3	0	0	1	0	0
158.341422597095	2.51865060614793	punish_rtpj	160.860073203243	28	3	5	10	750	250	250	250	0	0	0	0	2000	0	BLOCKED	0.25	1	7	1	guilty	At this moment	1	1	8	189	RTPJ	522.927142325789	0.374531835205993	n/a	n/a	n/a	n/a	1778.24151696607	0	1279.83445565284	0.82977091540133	-0.00013672083441321	40.4693631734358	1867.72943889316	1	4	0	0	1	0	0
161.844232952744	2.51872112950309	punish_rtpj	164.362954082247	29	3	5	10	750	250	250	250	0	0	0	0	2000	0	BLOCKED	0.25	1	1	-1	interested	At this moment	5	1	8	189	RTPJ	590.235336430371	0.374531835205993	n/a	n/a	n/a	n/a	1751.45309381238	0	1375.45312875538	0.815747185404344	-0.000283152962405294	41.8372732504027	1823.49577248271	1	5	0	0	1	0	0
165.36367765186	2.51875392286107	punish_rtpj	167.882431574721	30	3	5	10	750	250	250	250	0	0	0	0	2000	0	BLOCKED	0.25	-1	6	-1	proud	At this moment	3	1	8	189	RTPJ	657.527662783861	0	8613.04113920193	-5.94191417755065	0.00127520339363967	77.0865538225295	1827.06117353308	0	1370.70127347414	0.531068782725958	-7.24718622662547e-05	39.591908620736	1758.4757878555	0	6	0	0	1	0	0
168.866623412345	2.5186823416613	punish_rtpj	171.385305754006	31	3	5	10	750	250	250	250	0	0	0	0	2000	0	BLOCKED	0.25	1	8	1	inspired	At this moment	1	1	8	189	RTPJ	623.276938159019	0	15913.8907473971	-13.3306371071495	0.00309466929951594	41.8957313362833	1731.55680399501	0	1157.11710715387	0.622050401063882	-1.63159403306982e-06	13.4485465213563	1684.30053804766	0	7	0	0	1	0	0
172.386140045278	2.51869186231121	punish_rtpj	174.904831907589	32	3	5	10	750	250	250	250	0	0	0	0	2000	0	BLOCKED	0.25	-1	10	-1	ashamed	At this moment	4	1	8	189	RTPJ	623.07594660297	0.374531835205993	n/a	n/a	n/a	n/a	1776.32734530938	0	1202.87334482223	1.04343987444591	-0.000320956169391888	67.110602570375	1812.10991544965	1	8	0	0	1	0	0
175.905665141016	6.02153783225268	panas_none	181.927202973269	33	5	6	10	n/a	n/a	n/a	n/a	n/a	n/a	n/a	n/a	2000	0	BLOCKED	n/a	n/a	+	0	hostile	At this moment	2	1	8	189	NONE	n/a	0	-903.498129988028	1.98568519610089	-0.000436502820780737	34.0825758617994	1318.21598002497	0	576.838727167214	1.47629435308935	-0.000730856137554869	110.190968459475	1206.82013835511	4	1	0	1	0	0	0
182.911421962384	6.02134706658126	panas_none	188.932769028965	34	5	6	10	n/a	n/a	n/a	n/a	n/a	n/a	n/a	n/a	2000	0	BLOCKED	n/a	n/a	+	0	upset	At this moment	2	1	8	189	NONE	n/a	0	4782.61680678434	-3.33489917341569	0.00082537286538119	15.965617114182	1463.22347066167	0	1439.27908049484	0.121014346904604	-5.15111318178596e-05	56.146706786563	1499.61644888547	1	2	0	1	0	0	0
189.934053964473	6.02126455425469	panas_none	195.955318518728	35	5	6	10	n/a	n/a	n/a	n/a	n/a	n/a	n/a	n/a	2000	0	BLOCKED	n/a	n/a	+	0	distressed	At this moment	2	1	8	189	NONE	n/a	0	1427.21717379071	-0.0995916444997281	5.13284743825364e-05	13.3215026176545	1447.23970037453	0	1526.54013681677	0.318606293584264	-0.000239461027523946	57.8520174765088	1587.24827056111	2	3	0	1	0	0	0
196.956067829363	8.27345853579419	panas_none	205.229526365157	36	5	6	10	n/a	n/a	n/a	n/a	n/a	n/a	n/a	n/a	2000	0	BLOCKED	n/a	n/a	+	0	active	At this moment	1	1	8	189	NONE	n/a	0.374531835205993	n/a	n/a	n/a	n/a	2110.20758483034	0.461183704842429	n/a	n/a	n/a	n/a	1775.92582025678	5	4	0	1	0	0	0
206.230283433363	2.51874616529048	punish_vlpfc	208.749029598653	37	4	7	10	0	0	0	0	250	250	250	750	2000	0	BLOCKED	0.25	1	8	1	nervous	At this moment	2	1	8	189	VLPFC	540.00613553077	0	20990.3705495008	-17.493446413412	0.00394122617334869	38.6008166887871	1837.37328339576	0	1430.40675338083	0.610070495863682	3.92500480605741e-05	18.1054116507513	1982.33512682552	0	1	0	0	1	0	0
209.749723901071	2.51871337193251	punish_vlpfc	212.268437273003	38	4	7	10	0	0	0	0	250	250	250	750	2000	0	BLOCKED	0.25	-1	10	-1	guilty	At this moment	1	1	8	189	VLPFC	506.455355193466	0	4716.48782792185	-2.70155230621265	0.000608437711609536	19.5265366920933	1759.20349563046	0.230591852421214	987.554777646793	0.690301463433979	-4.49565894038592e-05	46.3144373485779	1536.27472527473	1	2	0	0	1	0	0
213.25260619054	2.5190152118914	punish_vlpfc	215.771621402431	39	4	7	10	0	0	0	0	250	250	250	750	2000	0	BLOCKED	0.25	1	1	-1	alert	At this moment	5	1	8	189	VLPFC	673.478634953499	0	3784.98475815982	-1.82986424655465	0.000399849669763986	41.4963206102144	1727.24719101124	0.230591852421214	1350.51751662919	0.471730623620316	-0.000128478512430705	22.371132992144	1597.56243756244	1	3	0	0	1	0	0
216.772244123645	2.51870314604417	punish_vlpfc	219.290947269689	40	4	7	10	0	0	0	0	250	250	250	750	2000	0	BLOCKED	0.25	1	0	-1	irritable	At this moment	5	1	8	189	VLPFC	539.449706267565	0.305867665418227	n/a	n/a	n/a	n/a	1854.23561151079	0.230591852421214	1284.1314352514	0.283000251604646	0.000155235436238883	48.0339632304195	1669.05194805195	2	4	0	0	1	0	0
220.291759346109	2.51856950429084	punish_vlpfc	222.8103288504	41	4	7	10	0	0	0	0	250	250	250	750	2000	0	BLOCKED	0.25	1	6	1	active	At this moment	5	1	8	189	VLPFC	592.19588566944	0	18817.4135203237	-15.7610003431605	0.00358104645307423	18.9148910304546	1681.23845193508	0	1219.57829534435	0.935227437301789	-0.000315304007968777	39.5091519149395	1742.36664104535	0	5	0	0	1	0	0
223.811227670543	2.51879130024091	punish_vlpfc	226.330018970784	42	4	7	10	0	0	0	0	250	250	250	750	2000	0	BLOCKED	0.25	-1	8	-1	inspired	At this moment	2	1	8	189	VLPFC	490.227931480855	0	3268.76979577235	-1.12507211084565	0.00022280700944457	43.0964476001821	1900.92509363296	0	1416.87106775439	0.493618587419597	-7.92893386770279e-05	26.8273135342997	1767.6003074558	0	6	0	0	1	0	0
227.330768634036	2.51875921211391	punish_vlpfc	229.84952784615	43	4	7	10	0	0	0	0	250	250	250	750	2000	0	BLOCKED	0.25	1	1	-1	scared	At this moment	3	1	8	189	VLPFC	606.488501168787	0	6677.04621288106	-4.39883332618703	0.000949586124037438	61.2919659795573	1678.67540574282	0	1138.6219062254	0.768915979000445	-0.00023489120926903	20.0089601440586	1589.79861644889	0	7	0	0	1	0	0
230.83353843876	2.51876838014647	punish_vlpfc	233.352306818906	44	4	7	10	0	0	0	0	250	250	250	750	2000	0	BLOCKED	0.25	-1	9	-1	hostile	At this moment	3	1	8	189	VLPFC	823.734987337142	0	4840.25323308366	-2.62764536807421	0.000558749863036723	43.9326676256402	1816.55680399501	0	1042.41295988427	1.01047444375367	-0.000308233631700676	22.9766831299775	1635.29746348962	0	8	0	0	1	0	0
234.35309668047	6.02158790383115	panas_none	240.374684584301	45	5	8	10	n/a	n/a	n/a	n/a	n/a	n/a	n/a	n/a	2000	0	BLOCKED	n/a	n/a	+	0	nervous	At this moment	3	1	8	189	NONE	n/a	0.181023720349563	4212.66102693542	-3.08519877548866	0.000786514463459526	15.8748035329731	1218.83079268293	0	397.218002346484	1.54298961021341	-0.0006861361790291	27.1521718529122	1165.8670253651	4	1	0	1	0	0	1
241.375536859032	6.02150468627735	panas_none	247.397041545309	46	5	8	10	n/a	n/a	n/a	n/a	n/a	n/a	n/a	n/a	2000	0	BLOCKED	n/a	n/a	+	0	distressed	At this moment	3	1	8	189	NONE	n/a	0	-306.496705021596	1.47040955663131	-0.000239132436662242	40.1467278114026	1714.10362047441	0	1362.449613935	0.416500382322431	-0.000144795974769031	30.6367356537106	1592.24365872406	3	2	0	1	0	0	1
248.397878304902	6.02164432251826	panas_none	254.419522627421	47	5	8	10	n/a	n/a	n/a	n/a	n/a	n/a	n/a	n/a	2000	0	BLOCKED	n/a	n/a	+	0	inspired	At this moment	3	1	8	189	NONE	n/a	0	274.737622188409	1.16371982090345	-0.000270134644856997	35.8871871621473	1513.1747815231	0	1009.98908706183	0.903352754238103	-0.000354542878724184	34.1505265708613	1472.89315910838	1	3	0	1	0	0	1
255.420188367881	5.97161152916027	panas_none	261.391799897041	48	5	8	10	n/a	n/a	n/a	n/a	n/a	n/a	n/a	n/a	2000	0	BLOCKED	n/a	n/a	+	0	excited	At this moment	5	1	8	189	NONE	n/a	0.204744069912609	4668.65918934348	-2.71198459597631	0.000661942732944415	12.1439162087611	1913.77708006279	0.470407378939277	n/a	n/a	n/a	n/a	1693.38606676343	3	4	0	1	0	0	1
262.392591521684	2.51880963631345	reward_vlpfc	264.911401157998	49	2	9	10	0	0	0	0	250	250	250	750	2000	0	BLOCKED	0.75	1	7	1	determined	At this moment	5	1	8	189	VLPFC	423.886965170503	0.374531835205993	n/a	n/a	n/a	n/a	1754.83433133733	0	1187.30727979849	0.515220259391633	0.000138861020838137	19.6249759062133	1744.95849346656	2	1	1	0	0	0	0
265.912046799298	2.51870561436567	reward_vlpfc	268.430752413664	50	2	9	10	0	0	0	0	250	250	250	750	2000	0	BLOCKED	0.75	-1	1	1	active	At this moment	3	1	8	189	VLPFC	490.537176389247	0	13729.1928784425	-11.0127975728388	0.002496005449232	15.3299679118742	1703.31210986267	0.242890084550346	1338.4823423625	0.599902313897893	-0.000125541696255823	40.0414447806133	1707.57563451777	1	2	1	0	0	0	0
269.431693195201	2.518651664	reward_vlpfc	271.950344859201	51	2	9	10	0	0	0	0	250	250	250	750	2000	0	BLOCKED	0.75	1	2	-1	hostile	At this moment	2	1	8	189	VLPFC	523.547042604536	0	6059.29476047765	-3.86680977796197	0.000859266055364639	44.0301891799288	1774.57553058677	0.230591852421214	1315.16559918268	0.5591777230074	-0.00014039560956256	16.0040781076312	1626.24575424575	1	3	1	0	0	0	0
272.934486977864	2.51873135538767	reward_vlpfc	275.453218333252	52	2	9	10	0	0	0	0	250	250	250	750	2000	0	BLOCKED	0.75	1	2	-1	ashamed	At this moment	2	1	8	189	VLPFC	541.20467992872	0	5553.03097231397	-3.28647615255784	0.000710232732496967	43.1734806814479	1821.31335830212	0.230591852421214	1130.26119761038	0.565240373089868	3.73730875296721e-06	24.9561195531737	1576.30869130869	1	4	1	0	0	0	0
276.453939434547	2.51878847930209	reward_vlpfc	278.972727913849	53	2	9	10	0	0	0	0	250	250	250	750	2000	0	BLOCKED	0.75	-1	1	1	upset	At this moment	3	1	8	189	VLPFC	424.043527014554	0	12813.0459862328	-10.5491376052888	0.00245137074198749	26.3279047085474	1593.45443196005	0.230591852421214	1038.7142813366	1.06239334176597	-0.000362986778737567	26.9199238833205	1627.58741258741	1	5	1	0	0	0	0
279.97342221627	2.51905964159965	reward_vlpfc	282.49248185787	54	2	9	10	0	0	0	0	250	250	250	750	2000	0	BLOCKED	0.75	1	7	1	proud	At this moment	4	1	8	189	VLPFC	573.130249582231	0	19388.8781685594	-16.4225082160308	0.00373127021247581	26.6675600184306	1539.94631710362	0	1350.65510480035	0.240426882353409	0.000129092723195023	17.9458698550546	1657.96079938509	0	6	1	0	0	0	0
283.476373618625	2.51873840772731	reward_vlpfc	285.995112026352	55	2	9	10	0	0	0	0	250	250	250	750	2000	0	BLOCKED	0.75	1	8	1	excited	At this moment	3	1	8	189	VLPFC	556.47263341397	0	16284.703972394	-14.0169535573447	0.00325918957855222	43.917368475907	1395.15605493134	0	981.835668474171	1.04830966493458	-0.000360387301837829	26.7125726939118	1561.1429669485	0	7	1	0	0	0	0
286.995933270808	2.51868093118816	reward_vlpfc	289.514614201996	56	2	9	10	0	0	0	0	250	250	250	750	2000	0	BLOCKED	0.75	-1	3	1	active	At this moment	2	1	8	189	VLPFC	523.67715818435	0.374531835205993	n/a	n/a	n/a	n/a	1708.17564870259	0	949.316713048531	1.02924065764327	-0.000301896030749266	14.5813422388474	1569.23443504996	1	8	1	0	0	0	0
290.515341650389	6.02171096708997	panas_none	296.537052617479	57	5	10	10	n/a	n/a	n/a	n/a	n/a	n/a	n/a	n/a	2000	0	BLOCKED	n/a	n/a	+	0	scared	At this moment	2	1	8	189	NONE	n/a	0	3184.25931236849	-1.97412837263483	0.00051475720232593	22.1983575956678	1336.37328339576	0	645.728991726646	1.15441613452672	-0.000535016956961108	43.761219621574	1185.46579554189	2	1	0	1	0	1	1
297.537825906049	6.02145390946419	panas_none	303.559279815514	58	5	10	10	n/a	n/a	n/a	n/a	n/a	n/a	n/a	n/a	2000	0	BLOCKED	n/a	n/a	+	0	irritable	At this moment	3	1	8	189	NONE	n/a	0	563.552742113048	0.974934094283095	-0.000245943308594151	28.3956768526037	1513.48813982522	0	1708.0404717384	-0.615224039905691	0.000386154468055649	20.7826789937881	1517.94619523443	1	2	0	1	0	1	1
304.54355980733	6.02152972206846	panas_none	310.565089529399	59	5	10	10	n/a	n/a	n/a	n/a	n/a	n/a	n/a	n/a	2000	0	BLOCKED	n/a	n/a	+	0	guilty	At this moment	1	1	8	189	NONE	n/a	0	5542.5377695291	-4.12735219793149	0.00105177050238247	29.1019688395722	1565.59675405743	0	1241.52564598538	0.257359627311998	-3.47358489799685e-05	20.4860841330678	1433.28516525749	2	3	0	1	0	1	1
311.565794410322	8.15670148169619	panas_none	319.722495892018	60	5	10	10	n/a	n/a	n/a	n/a	n/a	n/a	n/a	n/a	2000	0	BLOCKED	n/a	n/a	+	0	inspired	At this moment	3	1	8	189	NONE	n/a	0.393258426966292	n/a	n/a	n/a	n/a	1890.24279835391	0.32205995388163	n/a	n/a	n/a	n/a	1519.36167800454	5	4	0	1	0	1	1
320.723316078622	2.51869679894668	reward_rtpj	323.242012877569	61	1	11	10	750	250	250	250	0	0	0	0	2000	0	BLOCKED	0.75	1	0	-1	active	At this moment	3	1	8	189	RTPJ	706.684556089342	0	5466.12108543723	-2.97787166309918	0.000609612949692383	45.3257301267915	1932.94007490637	0	837.142212493506	0.838192611059656	-6.90296561122309e-05	18.5485309956588	1501.70561106841	1	1	1	0	0	0	0
324.242769240536	2.51886252882707	reward_rtpj	326.761631769363	62	1	11	10	750	250	250	250	0	0	0	0	2000	0	BLOCKED	0.75	1	7	1	interested	At this moment	5	1	8	189	RTPJ	507.057272017002	0.374531835205993	n/a	n/a	n/a	n/a	1497.96007984032	0.230591852421214	1117.55965965097	0.658375464425938	-0.000103822840389506	32.2664991308391	1572.73926073926	2	2	1	0	0	0	0
327.745656819258	2.51869750418143	reward_rtpj	330.264354323439	63	1	11	10	750	250	250	250	0	0	0	0	2000	0	BLOCKED	0.75	-1	4	1	afraid	At this moment	1	1	8	189	RTPJ	540.158465977758	0.374531835205993	n/a	n/a	n/a	n/a	1511.61876247505	0	1241.15391256622	0.449049141567914	-5.68228063832274e-05	38.8184581741072	1574.43889315911	1	3	1	0	0	0	0
331.24853875611	2.51876979061961	reward_rtpj	333.767308546729	64	1	11	10	750	250	250	250	0	0	0	0	2000	0	BLOCKED	0.75	1	9	1	nervous	At this moment	2	1	8	189	RTPJ	539.615788772702	0	13915.5998995092	-11.6197268685504	0.00270524609842392	40.0166735195264	1588.39450686642	0.230591852421214	1021.07431991183	0.574964402046815	4.44852915707087e-05	44.7046116880427	1544.58841158841	1	4	1	0	0	0	0
334.768069141097	2.51876979061961	reward_rtpj	337.286838931717	65	1	11	10	750	250	250	250	0	0	0	0	2000	0	BLOCKED	0.75	1	8	1	hostile	At this moment	2	1	8	189	RTPJ	490.06431729719	0	15057.5380496835	-12.8672102916503	0.00299747007941439	44.1193884547474	1399.79775280899	0.230591852421214	1249.25030803461	0.417902724385553	-5.00853994498611e-05	45.8733091377176	1561.65534465534	1	5	1	0	0	0	0
338.287721178871	2.51856738859044	reward_rtpj	340.806288567461	66	1	11	10	750	250	250	250	0	0	0	0	2000	0	BLOCKED	0.75	-1	10	-1	irritable	At this moment	5	1	8	189	RTPJ	556.369316697121	0	1396.32685433716	0.613580221471775	-0.000208500746404915	15.2986769666557	1753.88888888889	0.230591852421214	1198.9122396956	0.370064392730748	4.20740288094645e-05	30.6396186432818	1558.33566433566	1	6	1	0	0	0	0
341.807170462001	2.51864849044756	reward_rtpj	344.325818952449	67	1	11	10	750	250	250	250	0	0	0	0	2000	0	BLOCKED	0.75	-1	0	1	afraid	At this moment	4	1	8	189	RTPJ	574.260033708066	0	8542.25451985675	-6.5949073948008	0.00153174336326008	13.9108440812158	1529.83270911361	0.230591852421214	1097.31592364231	0.883738422261274	-0.000275837006077722	41.6767132515282	1584.70829170829	1	7	1	0	0	0	0
345.326556979343	2.51878142696989	reward_rtpj	347.845338406313	68	1	11	10	750	250	250	250	0	0	0	0	2000	0	BLOCKED	0.75	1	10	1	jittery	At this moment	4	1	8	189	RTPJ	607.317150574178	0	8125.31991582789	-6.29816424462114	0.00147940100308564	12.1728282849034	1502.39825218477	0.230591852421214	1077.77318171281	0.649365398825985	-0.000109295422978463	34.8119730661406	1512.67732267732	1	8	1	0	0	0	0
348.846069380879	6.0216323335469	panas_none	354.867701714426	69	5	12	10	n/a	n/a	n/a	n/a	n/a	n/a	n/a	n/a	2000	0	BLOCKED	n/a	n/a	+	0	attentive	At this moment	5	1	8	189	NONE	n/a	0	-3422.98871775275	4.40056740639032	-0.000996969655332461	11.2592852049725	1367.5468164794	0	609.27543370681	1.29803796891841	-0.000655218744437614	107.99024321518	1153.00461183705	2	1	0	1	0	1	0
355.868533890001	6.02154911598939	panas_none	361.890083005991	70	5	12	10	n/a	n/a	n/a	n/a	n/a	n/a	n/a	n/a	2000	0	BLOCKED	n/a	n/a	+	0	distressed	At this moment	2	1	8	189	NONE	n/a	0	1913.30436380759	-0.390286446682896	9.35145760384148e-05	15.7234457442377	1510.78901373283	0	1652.91686677243	-0.240562968778639	0.000108905365419213	37.0815900217742	1543.28900845503	3	2	0	1	0	1	0
362.874187394656	6.02159530878811	panas_none	368.895782703444	71	5	12	10	n/a	n/a	n/a	n/a	n/a	n/a	n/a	n/a	2000	0	BLOCKED	n/a	n/a	+	0	irritable	At this moment	3	1	8	189	NONE	n/a	0	4413.94473105896	-2.86131547701197	0.000685874944955929	24.4264185908271	1466.57927590512	0.229823212913144	1998.96628952513	-0.552716431742047	4.90556337800746e-05	65.2091881459544	1507.87225548902	3	3	0	1	0	1	0
369.896527782675	14.8621673942358	panas_none	384.758695176911	72	5	12	10	n/a	n/a	n/a	n/a	n/a	n/a	n/a	n/a	2000	0	BLOCKED	n/a	n/a	+	0	guilty	At this moment	5	1	8	189	NONE	n/a	0.585518102372035	n/a	n/a	n/a	n/a	1849.57228915663	0.461183704842429	n/a	n/a	n/a	n/a	1675.87161198288	5	4	0	1	0	1	0
385.742828832768	2.51869468325003	reward_rtpj	388.261523516018	73	1	13	10	750	250	250	250	0	0	0	0	2000	0	BLOCKED	0.75	1	10	1	afraid	At this moment	4	1	8	189	RTPJ	409.262184672058	0	17160.0022778354	-14.5112833155522	0.00331688438095196	33.1087890816736	1483.66541822722	0	781.993138577125	1.06270209113231	-0.000238355237350417	26.169882550588	1480.05841660261	0	1	1	0	0	0	0
389.262334181968	2.5187176033333	reward_rtpj	391.781051785301	74	1	13	10	750	250	250	250	0	0	0	0	2000	0	BLOCKED	0.75	-1	0	1	hostile	At this moment	3	1	8	189	RTPJ	489.775524165481	0	17466.8042449596	-14.9641080910528	0.00344619989449909	20.8958997786134	1405.59176029963	0	992.905333977815	0.940448430636692	-0.000342612703624597	46.0078442624774	1497.53651037663	0	2	1	0	0	0	0
392.781796864532	2.51882338836788	reward_rtpj	395.3006202529	75	1	13	10	750	250	250	250	0	0	0	0	2000	0	BLOCKED	0.75	1	9	1	strong	At this moment	5	1	8	189	RTPJ	574.631339170039	0	14392.8266015863	-11.8359310797851	0.00269279916275005	19.5795042828688	1539.79275905119	0	1096.87198507746	0.453480779531988	2.77366878987124e-05	16.1052585626422	1505.46425826287	0	3	1	0	0	0	0
396.30137026877	2.51867952072246	reward_rtpj	398.820049789492	76	1	13	10	750	250	250	250	0	0	0	0	2000	0	BLOCKED	0.75	1	9	1	proud	At this moment	3	1	8	189	RTPJ	640.206421855837	0	14813.4167360592	-12.5737965227168	0.0029226241756812	39.8485475049198	1450.3720349563	0	961.569123924605	0.988062049175981	-0.000328016792033754	22.2790515367481	1518.37202152191	0	4	1	0	0	0	0
399.820923573844	2.5186841047406	reward_rtpj	402.339607678585	77	1	13	10	750	250	250	250	0	0	0	0	2000	0	BLOCKED	0.75	-1	9	-1	scared	At this moment	3	1	8	189	RTPJ	523.267417505383	0	5606.87379431472	-3.56798004196129	0.000785679858147769	38.7250745898353	1621.33458177278	0.230591852421214	1101.51781278892	0.68920454893401	-0.000162181536920822	14.8744413007928	1539.52647352647	1	5	1	0	0	0	0
403.323616508108	2.51877225893736	reward_rtpj	405.842388767045	78	1	13	10	750	250	250	250	0	0	0	0	2000	0	BLOCKED	0.75	-1	3	1	attentive	At this moment	3	1	8	189	RTPJ	557.179630037397	0	12954.4958043736	-10.7262230899126	0.00247517287436825	39.826018078947	1475.79775280899	0.230591852421214	1163.85445522699	0.252428741950178	0.000134513211896905	31.6756861976015	1467.9040959041	1	6	1	0	0	0	0
406.843245978411	2.51874263912066	reward_rtpj	409.361988617532	79	1	13	10	750	250	250	250	0	0	0	0	2000	0	BLOCKED	0.75	1	3	-1	interested	At this moment	3	1	8	189	RTPJ	556.275168016553	0	4503.58453432681	-2.53999852833274	0.00056074102869866	39.7299314347937	1672.38451935081	0	1087.49496291513	0.746534980699033	-0.000200707699037496	18.4861985701271	1548.09069946195	0	7	1	0	0	0	0
410.362825024512	2.51869574109463	reward_rtpj	412.881520765606	80	1	13	10	750	250	250	250	0	0	0	0	2000	0	BLOCKED	0.75	-1	4	1	hostile	At this moment	4	1	8	189	RTPJ	673.565026056021	0.374531835205993	n/a	n/a	n/a	n/a	1612.75848303393	0	1193.69136724458	0.593270711655941	-0.000118613874440133	18.1995557238134	1595.52882398155	1	8	1	0	0	0	0
413.882306748383	6.02161999196187	panas_none	419.903926740345	81	5	14	10	n/a	n/a	n/a	n/a	n/a	n/a	n/a	n/a	2000	0	BLOCKED	n/a	n/a	+	0	nervous	At this moment	3	1	8	189	NONE	n/a	0	984.533503110047	-0.187868315023941	0.000155731326440492	12.4341683694417	1284.95006242197	0	632.787299163067	1.01368564543472	-0.000469654045868129	95.4303194990255	1093.61337432744	2	1	0	1	0	1	0
420.904715896674	6.02154206364975	panas_none	426.926257960323	82	5	14	10	n/a	n/a	n/a	n/a	n/a	n/a	n/a	n/a	2000	0	BLOCKED	n/a	n/a	+	0	scared	At this moment	2	1	8	189	NONE	n/a	0	6300.00746700813	-4.82282503883255	0.0011664564781952	18.3754745154229	1378.3570536829	0	1349.64132401566	0.49651670241593	-0.000383115935434489	20.7753416613755	1444.77478862414	2	2	0	1	0	1	0
427.910325676851	6.02163973849639	panas_none	433.931965415347	83	5	14	10	n/a	n/a	n/a	n/a	n/a	n/a	n/a	n/a	2000	0	BLOCKED	n/a	n/a	+	0	alert	At this moment	5	1	8	189	NONE	n/a	0	6796.7938215303	-5.24903336145814	0.00124480559221311	25.0069010406702	1328.69038701623	0	1336.33346132403	0.441230749825842	-0.00032257421687378	16.1095715418637	1436.05149884704	2	3	0	1	0	1	0
434.93278630719	7.95647721743211	panas_none	442.889263524622	84	5	14	10	n/a	n/a	n/a	n/a	n/a	n/a	n/a	n/a	2000	0	BLOCKED	n/a	n/a	+	0	jittery	At this moment	5	1	8	189	NONE	n/a	0.374531835205993	n/a	n/a	n/a	n/a	1773.72055888224	0.461183704842429	n/a	n/a	n/a	n/a	1496.83880171184	9	4	0	1	0	1	0
443.890054796647	2.51875392286104	punish_rtpj	446.408808719508	85	3	15	10	750	250	250	250	0	0	0	0	2000	0	BLOCKED	0.25	1	3	-1	afraid	At this moment	1	1	8	189	RTPJ	473.548100456595	0	5780.89879708071	-3.31961587881352	0.000714387158637813	39.621952931111	1998.1822721598	0	923.368411471755	1.58562761640398	-0.000531089146583142	12.3384864113804	1812.44350499616	0	1	0	0	1	0	0
447.409653941903	2.51873276585712	punish_rtpj	449.92838670776	86	3	15	10	750	250	250	250	0	0	0	0	2000	0	BLOCKED	0.25	1	4	-1	interested	At this moment	4	1	8	189	RTPJ	457.314329642802	0	1255.69285990746	0.541610024943517	-0.000103481193932925	33.3027592249325	1931.48938826467	0.230591852421214	1129.99346034357	0.959039128074677	-0.000333771529575956	27.9638708955897	1657.3986013986	1	2	0	0	1	0	0
450.912396947753	2.51872923968727	punish_rtpj	453.43112618744	87	3	15	10	750	250	250	250	0	0	0	0	2000	0	BLOCKED	0.25	1	4	-1	active	At this moment	3	1	8	189	RTPJ	540.455016676337	0	5781.64577160635	-3.66289366620403	0.000853114336419835	30.7590543256422	1897.3570536829	0	1231.70660530262	0.422040270822302	2.18680319727162e-05	21.4426069638254	1609.3712528824	0	3	0	0	1	0	0
454.431964004882	2.51870596698296	punish_rtpj	456.950669971865	88	3	15	10	750	250	250	250	0	0	0	0	2000	0	BLOCKED	0.25	-1	8	-1	guilty	At this moment	3	1	8	189	RTPJ	324.154248680919	0.374531835205993	n/a	n/a	n/a	n/a	1506.59081836327	0.230591852421214	950.534152910373	1.55836253476381	-0.000724186326400884	41.228376920801	1645.53346653347	2	4	0	0	1	0	0
457.934756377075	2.51875956473128	punish_rtpj	460.453515941806	89	3	15	10	750	250	250	250	0	0	0	0	2000	0	BLOCKED	0.25	1	0	-1	strong	At this moment	4	1	8	189	RTPJ	440.747335985303	0	1493.16996122857	0.356051379115032	-0.000108132422810164	36.5747967004792	1758.70786516854	0.230591852421214	1226.88100126735	0.557048421951041	-0.000136970976643815	25.6265343144703	1567.12987012987	1	5	0	0	1	0	0
461.454279357109	2.51910548178108	punish_rtpj	463.97338483889	90	3	15	10	750	250	250	250	0	0	0	0	2000	0	BLOCKED	0.25	-1	1	1	hostile	At this moment	3	1	8	189	RTPJ	556.129184681922	0	17317.8206195208	-14.6708179908458	0.00333720464766312	43.9966878504241	1404.11735330836	0	1158.46555828612	0.683236423201979	-0.000107263490831097	48.4367461365408	1646.92928516526	0	6	0	0	1	0	0
464.973910590496	2.51882867761327	punish_rtpj	467.492739268109	91	3	15	10	750	250	250	250	0	0	0	0	2000	0	BLOCKED	0.25	-1	8	-1	attentive	At this moment	1	1	8	189	RTPJ	507.028710056096	0.374531835205993	n/a	n/a	n/a	n/a	1673.67864271457	0.283627978478094	n/a	n/a	n/a	n/a	1469.48283261803	2	7	0	0	1	0	0
468.493468832206	2.51868445735801	punish_rtpj	471.012153289564	92	3	15	10	750	250	250	250	0	0	0	0	2000	0	BLOCKED	0.25	1	8	1	determined	At this moment	5	1	8	189	RTPJ	523.278348624706	0	11658.0492272795	-9.48856859318647	0.00219480663129035	24.4025766842372	1526.91260923845	0.230591852421214	1013.32359310362	0.73364372652819	-8.02023498713654e-05	24.9799350014834	1556.8951048951	1	8	0	0	1	0	0
472.012876859177	6.02158049887788	panas_none	478.034457358055	93	5	16	10	n/a	n/a	n/a	n/a	n/a	n/a	n/a	n/a	2000	0	BLOCKED	n/a	n/a	+	0	nervous	At this moment	3	1	8	189	NONE	n/a	0	405.246396366648	0.718635831349069	-0.000106937818602147	15.7270978443626	1436.03495630462	0	557.251672636698	1.29513742322592	-0.000538469851648849	118.425210690802	1199.17678708686	2	1	0	1	0	0	0
479.018591719151	6.02159001953527	panas_none	485.040181738686	94	5	16	10	n/a	n/a	n/a	n/a	n/a	n/a	n/a	n/a	2000	0	BLOCKED	n/a	n/a	+	0	scared	At this moment	2	1	8	189	NONE	n/a	0	-1818.44277949974	2.91306933537593	-0.000620865728192096	38.1078495085428	1526.85143570537	0	1372.15307109846	0.0200481084865537	-1.93312278488732e-05	30.2502493440717	1373.26518063028	3	2	0	1	0	0	0
486.040875335868	6.02165842719	panas_none	492.062533763058	95	5	16	10	n/a	n/a	n/a	n/a	n/a	n/a	n/a	n/a	2000	0	BLOCKED	n/a	n/a	+	0	enthusiastic	At this moment	3	1	8	189	NONE	n/a	0	4532.64679773689	-3.37877602621877	0.000860830803598995	15.115589734412	1279.02372034956	0	1592.10343139752	-0.982907793662654	0.000596504429372148	25.2782265551598	1271.24442736357	0	3	0	1	0	0	0
493.063315161817	10.0748771130554	panas_none	503.138192274872	96	5	16	10	n/a	n/a	n/a	n/a	n/a	n/a	n/a	n/a	2000	0	BLOCKED	n/a	n/a	+	0	distressed	At this moment	2	1	8	189	NONE	n/a	0.229712858926342	-2233.59200399523	3.30324376777123	-0.000642539631297724	32.1388231102598	1890.84116693679	0.514988470407379	n/a	n/a	n/a	n/a	1580.78129952456	6	4	0	1	0	0	0
