onset	duration	trial_type	offset	trial	block	blockCntr	frequency	amplitude_1	amplitude_2	amplitude_3	amplitude_4	amplitude_5	amplitude_6	amplitude_7	amplitude_8	transition	sham	mode	rewardFraction	guess	outcome	correct	word	when	answer	runNr	scanNr	subjectNr	target	reactionTime	outcomeEyeClosed	outcomeParms_1	outcomeParms_2	outcomeParms_3	outcomeSigma	outcomePupilArea	guessEyeClosed	guessParms_1	guessParms_2	guessParms_3	guessSigma	guessPupilArea	nrBlinks	trialInBlock	isReward	isPanas	isPunish	beforePanasReward	beforePanasVLPFC
20.370498187393	2.54968738770485	punish_vlpfc	22.9201855750978	1	4	1	10	0	0	0	0	250	250	250	750	2000	0	BLOCKED	0.25	1	4	-1	jittery	At this moment	2	1	6	212	VLPFC	721.803098142147	0	6436.63858813273	-4.29823427908075	0.000923170832990951	20.3829305513217	1530.55805243446	0	1449.10606301904	-0.0129928775358344	0.000288978193899034	20.9928083753302	1686.28362797848	0	1	0	0	1	0	0
23.9154732062519	2.50760752779245	punish_vlpfc	26.4230807340443	2	4	1	10	0	0	0	0	250	250	250	750	2000	0	BLOCKED	0.25	-1	9	-1	ashamed	At this moment	1	1	6	212	VLPFC	1489.697070539	0	7995.08843502209	-5.68927970743774	0.00124827374662228	39.3941162630264	1618.59300873908	0	1044.71820482591	0.715488765767372	-0.000118827214387588	15.5874022224054	1553.20676402767	0	2	0	0	1	0	0
27.4070997951031	2.51870261052251	punish_vlpfc	29.9258024056256	3	4	1	10	0	0	0	0	250	250	250	750	2000	0	BLOCKED	0.25	1	0	-1	excited	At this moment	1	1	6	212	VLPFC	640.241105139256	0.132334581772784	7908.01118969907	-5.29747883937215	0.00108556108129718	44.4280938552153	1655.7928057554	0	987.699500806925	0.919008740964948	-0.000233525236376912	16.0696669311139	1567.02690238278	1	3	0	0	1	0	0
30.9437393091023	2.50174844965338	punish_vlpfc	33.4454877587557	4	4	1	10	0	0	0	0	250	250	250	750	2000	0	BLOCKED	0.25	1	8	1	attentive	At this moment	2	1	6	212	VLPFC	491.785618960857	0	17815.9005520701	-14.753135617891	0.00325234050988222	20.6664533513133	1338.99625468165	0	884.084325088063	1.02714431270784	-0.000276610557786316	28.3544960632959	1525.61337432744	0	4	0	0	1	0	0
34.4463216971159	2.51869097417593	punish_vlpfc	36.9650126712918	5	4	1	10	0	0	0	0	250	250	250	750	2000	0	BLOCKED	0.25	-1	6	-1	nervous	At this moment	3	1	6	212	VLPFC	457.450630992651	0.380774032459426	n/a	n/a	n/a	n/a	1624.66129032258	0	809.256191484687	1.1117764129252	-0.000302109774565402	24.9831986161172	1498.78170637971	1	5	0	0	1	0	0
37.965703094691	2.51868885844946	punish_vlpfc	40.4843919531405	6	4	1	10	0	0	0	0	250	250	250	750	2000	0	BLOCKED	0.25	1	1	-1	active	At this moment	1	1	6	212	VLPFC	790.30840203166	1	n/a	n/a	n/a	n/a	n/a	1	n/a	n/a	n/a	n/a	n/a	1	6	0	0	1	0	0
41.4853754009604	2.55197093310952	punish_vlpfc	44.03734633407	7	4	1	10	0	0	0	0	250	250	250	750	2000	0	BLOCKED	0.25	1	8	1	ashamed	At this moment	2	1	6	212	VLPFC	890.914867430925	0.374531835205993	n/a	n/a	n/a	n/a	1432.0119760479	0	863.146032001697	1.21188447145877	-0.000465693525745685	22.7652460857885	1484.24442736357	1	7	0	0	1	0	0
45.0381224433184	2.51877101814747	punish_vlpfc	47.5568934614658	8	4	1	10	0	0	0	0	250	250	250	750	2000	0	BLOCKED	0.25	-1	7	-1	strong	At this moment	2	1	6	212	VLPFC	590.670962482691	0.453183520599251	n/a	n/a	n/a	n/a	1802.62328767123	0	1023.2205078378	0.742642734652434	-0.000188995522359666	18.6215408894096	1491.04611837048	1	8	0	0	1	0	0
48.5712573004961	6.0247476939559	panas_none	54.596004994452	9	5	2	10	n/a	n/a	n/a	n/a	n/a	n/a	n/a	n/a	2000	0	BLOCKED	n/a	n/a	+	0	attentive	At this moment	5	1	6	212	NONE	n/a	0	3512.29243046604	-2.5842847898055	0.000649738530937564	9.79382096550654	985.329588014981	0	1394.13953627132	0.0327356777759372	-0.00013751313279201	124.267628447757	1305.92928516526	0	1	0	1	0	0	1
55.5967472524941	6.02156356567144	panas_none	61.6183108181655	10	5	2	10	n/a	n/a	n/a	n/a	n/a	n/a	n/a	n/a	2000	0	BLOCKED	n/a	n/a	+	0	scared	At this moment	1	1	6	212	NONE	n/a	0	4610.55158293131	-3.49515995734533	0.000853559345120993	13.2751883209117	1080.20599250936	0	1551.14863612562	-0.765172065798976	0.000323827852944479	30.041309601235	1179.73251345119	1	2	0	1	0	0	1
62.6190340349078	6.02158542791009	panas_none	68.6406194628179	11	5	2	10	n/a	n/a	n/a	n/a	n/a	n/a	n/a	n/a	2000	0	BLOCKED	n/a	n/a	+	0	active	At this moment	5	1	6	212	NONE	n/a	0	3878.40927700495	-2.6720219050297	0.000675013757172116	13.0231521315448	1280.06242197253	0	898.409556671107	0.390719906227434	-0.000130129651358229	21.4771931187214	1118.37432744043	1	3	0	1	0	0	1
69.6414392965138	11.2424817723632	panas_none	80.883921068877	12	5	2	10	n/a	n/a	n/a	n/a	n/a	n/a	n/a	n/a	2000	0	BLOCKED	n/a	n/a	+	0	upset	At this moment	2	1	6	212	NONE	n/a	0	-889.924767686101	2.56579494916799	-0.000615907418530867	14.9536092594689	1748.52309612984	0	1368.30620208428	0.135501980135954	2.23074295806481e-05	24.9561235752115	1502.39892390469	4	4	0	1	0	0	1
81.8847581807971	2.51871072071791	reward_rtpj	84.403468901515	13	1	3	10	750	250	250	250	0	0	0	0	2000	0	BLOCKED	0.75	1	10	1	afraid	At this moment	3	1	6	212	RTPJ	940.170828670263	0	3246.24063008447	-1.10109070910746	0.000130203389184717	60.5152755919657	1516.12484394507	0	1048.15127440131	1.04864913461409	-0.000305694659625348	15.6177456216059	1675.59723289777	0	1	1	0	0	0	0
85.4042037546039	2.51909930425883	reward_rtpj	87.9233030588627	14	1	3	10	750	250	250	250	0	0	0	0	2000	0	BLOCKED	0.75	1	7	1	excited	At this moment	3	1	6	212	RTPJ	423.40090996027	1	n/a	n/a	n/a	n/a	n/a	1	n/a	n/a	n/a	n/a	n/a	0	2	1	0	0	0	0
88.923823168397	2.51867686951161	reward_rtpj	91.4425000379086	15	1	3	10	750	250	250	250	0	0	0	0	2000	0	BLOCKED	0.75	1	2	-1	nervous	At this moment	1	1	6	212	RTPJ	489.936849892139	0.374531835205993	n/a	n/a	n/a	n/a	1715.44910179641	0	813.985699816749	1.26991549526803	-0.000412497035551454	17.0390620451829	1537.1329746349	1	3	1	0	0	0	0
92.4432994198501	2.51876185011864	reward_rtpj	94.9620612699687	16	1	3	10	750	250	250	250	0	0	0	0	2000	0	BLOCKED	0.75	-1	3	1	attentive	At this moment	3	1	6	212	RTPJ	740.160673290491	0.374531835205993	n/a	n/a	n/a	n/a	1581.33532934132	0	830.903973724493	1.16253917991211	-0.000345575260923104	15.7130627829485	1540.63489623367	2	4	1	0	0	0	0
95.9627421727181	2.53538878276943	reward_rtpj	98.4981309554875	17	1	3	10	750	250	250	250	0	0	0	0	2000	0	BLOCKED	0.75	-1	7	-1	proud	At this moment	4	1	6	212	RTPJ	823.444140762091	0.529338327091136	n/a	n/a	n/a	n/a	1778.89389920424	0	1386.10158968416	0.323434340344125	5.39535675181264e-05	19.5037451307184	1707.26364335127	1	5	1	0	0	0	0
99.499456441462	2.51835669356583	reward_rtpj	102.017813135028	18	1	3	10	750	250	250	250	0	0	0	0	2000	0	BLOCKED	0.75	1	10	1	strong	At this moment	4	1	6	212	RTPJ	472.732331156731	0	17984.0777128311	-14.6235266964234	0.00319556593668938	18.888450597072	1508.14357053683	0	1223.79643286133	0.518306489258583	-1.01897186750709e-05	35.9331847183223	1655.57955418909	0	6	1	0	0	0	0
103.018603348941	2.51875797134637	reward_rtpj	105.537361320287	19	1	3	10	750	250	250	250	0	0	0	0	2000	0	BLOCKED	0.75	1	7	1	determined	At this moment	5	1	6	212	RTPJ	890.554845839739	0.374531835205993	n/a	n/a	n/a	n/a	1509.71057884232	0	759.301344834431	1.22960284815278	-0.000354862934441493	18.399643377145	1520.37586471945	1	7	1	0	0	0	0
106.53802741313	2.51873505124449	reward_rtpj	109.056762464374	20	1	3	10	750	250	250	250	0	0	0	0	2000	0	BLOCKED	0.75	1	6	1	upset	At this moment	5	1	6	212	RTPJ	623.530602365732	0.112359550561798	20428.3746617383	-17.0313958895106	0.00377980258437697	14.9099006850438	1510.93389592124	0	988.951782132409	0.991346635389565	-0.000304983472554267	17.8454491826119	1568.54957724827	1	8	1	0	0	0	0
110.057816788167	6.03804839378596	panas_none	116.095865181953	21	5	4	10	n/a	n/a	n/a	n/a	n/a	n/a	n/a	n/a	2000	0	BLOCKED	n/a	n/a	+	0	ashamed	At this moment	1	1	6	212	NONE	n/a	0	2317.98313408446	-1.42044948156558	0.000374001334991459	11.4154802291813	1005.25468164794	0	1628.88348911748	-0.412282420396161	8.48726243720963e-05	117.117736769157	1353.68870099923	2	1	0	1	0	1	0
117.079854270607	6.02163937824965	panas_none	123.101493648857	22	5	4	10	n/a	n/a	n/a	n/a	n/a	n/a	n/a	n/a	2000	0	BLOCKED	n/a	n/a	+	0	guilty	At this moment	1	1	6	212	NONE	n/a	0	4948.66236197711	-3.77882586787719	0.00093879947801631	13.8189985951173	1203.17353308365	0	1385.08484564941	-0.361334064037197	0.000188752174695013	20.0354466571101	1240.04611837048	0	2	0	1	0	1	0
124.085665745527	6.02159248021245	panas_none	130.107258225739	23	5	4	10	n/a	n/a	n/a	n/a	n/a	n/a	n/a	n/a	2000	0	BLOCKED	n/a	n/a	+	0	nervous	At this moment	1	1	6	212	NONE	n/a	0	717.542752060016	0.271283525222209	1.04614209563048e-06	10.059978934739	1291.86641697878	0	1252.92720109266	-0.644696583167374	0.000385593903791597	13.4986014428795	1037.65641813989	2	3	0	1	0	1	0
131.091249077469	8.25685231110452	panas_none	139.348101388574	24	5	4	10	n/a	n/a	n/a	n/a	n/a	n/a	n/a	n/a	2000	0	BLOCKED	n/a	n/a	+	0	scared	At this moment	4	1	6	212	NONE	n/a	0.374531835205993	n/a	n/a	n/a	n/a	1833.69461077844	0.230591852421214	1201.99724016067	0.282171391303474	9.63220231579271e-05	23.8387526485816	1471.83616383616	5	4	0	1	0	1	0
140.332116218209	2.51880134320257	reward_rtpj	142.850917561412	25	1	5	10	750	250	250	250	0	0	0	0	2000	0	BLOCKED	0.75	-1	0	1	afraid	At this moment	4	1	6	212	RTPJ	423.841328144073	0	17359.7443390757	-14.3721853644958	0.00322267265946335	16.60826488548	1534.54806491885	0	927.706520743286	1.13554517139399	-0.000352515096792649	21.7947803041426	1588.15833973866	0	1	1	0	0	0	0
143.83500961411	2.5187544451654	reward_rtpj	146.353764059275	26	1	5	10	750	250	250	250	0	0	0	0	2000	0	BLOCKED	0.75	-1	2	1	enthusiastic	At this moment	4	1	6	212	RTPJ	473.607878297567	0.374531835205993	n/a	n/a	n/a	n/a	1642.41117764471	0	837.314379762665	1.22676416164039	-0.000341770571099774	14.2234888584559	1586.22905457341	1	2	1	0	0	0	0
147.337916056782	2.51869943696261	reward_rtpj	149.856615493745	27	1	5	10	750	250	250	250	0	0	0	0	2000	0	BLOCKED	0.75	-1	7	-1	proud	At this moment	5	1	6	212	RTPJ	773.472720354795	0.374531835205993	n/a	n/a	n/a	n/a	1867.75848303393	0	1120.43536051849	0.894373792173491	-0.000294756890755903	16.6437012610085	1626.32282859339	1	3	1	0	0	0	0
150.840740339816	2.51871248379348	reward_rtpj	153.359452823609	28	1	5	10	750	250	250	250	0	0	0	0	2000	0	BLOCKED	0.75	-1	4	1	interested	At this moment	2	1	6	212	RTPJ	573.20832836628	0.374531835205993	n/a	n/a	n/a	n/a	1670.87225548902	0	1285.12617637047	0.543442299434816	-6.94549348695291e-05	22.9311268511798	1687.52882398155	1	4	1	0	0	0	0
154.343528303295	2.51880486935377	reward_rtpj	156.862333172649	29	1	5	10	750	250	250	250	0	0	0	0	2000	0	BLOCKED	0.75	-1	0	1	upset	At this moment	2	1	6	212	RTPJ	490.24292114377	0.374531835205993	n/a	n/a	n/a	n/a	1630.32135728543	0	1196.21617813031	0.602791633654336	-3.54983927898957e-05	39.7399059243388	1680.19292851653	1	5	1	0	0	0	0
157.863319794029	2.5185062030852	reward_rtpj	160.381825997114	30	1	5	10	750	250	250	250	0	0	0	0	2000	0	BLOCKED	0.75	-1	0	1	distressed	At this moment	4	1	6	212	RTPJ	557.279929310083	0.374531835205993	n/a	n/a	n/a	n/a	1621.20958083832	0	1410.15578745891	0.327175698599647	5.61079721297287e-05	34.540232835701	1736.82244427364	1	6	1	0	0	0	0
161.382625379026	2.51875197684765	reward_rtpj	163.901377355874	31	1	5	10	750	250	250	250	0	0	0	0	2000	0	BLOCKED	0.75	-1	9	-1	ashamed	At this moment	1	1	6	212	RTPJ	640.890625029802	0.561797752808989	n/a	n/a	n/a	n/a	1840.04273504274	0	1334.10972843407	0.643796273354401	-0.000154737102498864	12.9524148484359	1747.59723289777	1	7	1	0	0	0	0
164.889782615364	2.51457241177559	reward_rtpj	167.404355027139	32	1	5	10	750	250	250	250	0	0	0	0	2000	0	BLOCKED	0.75	-1	1	1	enthusiastic	At this moment	3	1	6	212	RTPJ	719.211365818977	1	n/a	n/a	n/a	n/a	n/a	1	n/a	n/a	n/a	n/a	n/a	2	8	1	0	0	0	0
168.405044392675	6.02151032057404	panas_none	174.426554713249	33	5	6	10	n/a	n/a	n/a	n/a	n/a	n/a	n/a	n/a	2000	0	BLOCKED	n/a	n/a	+	0	guilty	At this moment	1	1	6	212	NONE	n/a	0	3346.29932518483	-2.51440430615834	0.000709320751962678	11.066930931827	1231.67041198502	0	1858.33785252397	-0.0663341566431987	-0.000241541066862758	67.396092996814	1599.02152190623	1	1	0	1	0	1	0
175.433607046127	6.03206096318365	panas_none	181.465668009311	34	5	6	10	n/a	n/a	n/a	n/a	n/a	n/a	n/a	n/a	2000	0	BLOCKED	n/a	n/a	+	0	afraid	At this moment	1	1	6	212	NONE	n/a	0	428.859759886553	0.376520539361003	3.99800527296724e-05	13.590439187583	1394.16479400749	0.229823212913144	1502.64872260894	0.285255703133955	-0.000329871001945425	33.9490336431076	1435.62275449102	3	2	0	1	0	1	0
182.466420140624	6.02168521842361	panas_none	188.488105359048	35	5	6	10	n/a	n/a	n/a	n/a	n/a	n/a	n/a	n/a	2000	0	BLOCKED	n/a	n/a	+	0	irritable	At this moment	1	1	6	212	NONE	n/a	0	868.156145805477	0.228129497519181	8.96655300199334e-06	20.799848015391	1387.97752808989	0	1152.22881558569	0.523673272704402	-0.000199482826794362	54.980158228597	1425.46118370484	0	3	0	1	0	1	0
189.488845501363	12.6774206515849	panas_none	202.166266152948	36	5	6	10	n/a	n/a	n/a	n/a	n/a	n/a	n/a	n/a	2000	0	BLOCKED	n/a	n/a	+	0	distressed	At this moment	1	1	6	212	NONE	n/a	0.585518102372035	n/a	n/a	n/a	n/a	1855.56024096386	0.230591852421214	1067.4734849017	0.731116733372387	-0.000127132293940122	38.9919835172649	1545.64735264735	7	4	0	1	0	1	0
203.166621237904	2.51865148109198	punish_rtpj	205.685272718996	37	3	7	10	750	250	250	250	0	0	0	0	2000	0	BLOCKED	0.25	-1	10	-1	scared	At this moment	1	1	6	212	RTPJ	390.706294625998	0	6393.20366872121	-3.95983773535058	0.000853744203134985	48.7640966794429	1888.57428214732	0	1030.32084819494	1.20361804091012	-0.000359852396219456	12.1476785400749	1742.41199077633	0	1	0	0	1	0	0
206.68607915327	2.51874704024195	punish_rtpj	209.204826193511	38	3	7	10	750	250	250	250	0	0	0	0	2000	0	BLOCKED	0.25	-1	9	-1	nervous	At this moment	4	1	6	212	RTPJ	489.668861240149	0.491885143570537	n/a	n/a	n/a	n/a	2146.51351351351	0	1209.91386199671	0.817351612998048	-0.000152149015651763	18.7251388575673	1777.17448116833	1	2	0	0	1	0	0
210.205607591957	2.51874245622753	punish_rtpj	212.724350048184	39	3	7	10	750	250	250	250	0	0	0	0	2000	0	BLOCKED	0.25	-1	9	-1	hostile	At this moment	4	1	6	212	RTPJ	356.720749855042	0	11988.0532197867	-9.21764367102454	0.00212041832442354	24.2273274158737	2076.22097378277	0	1462.29237554577	0.515096945510938	-2.39520927703322e-05	34.9692434850461	1878.95849346656	0	3	0	0	1	0	0
213.708827158242	2.51843744280936	punish_rtpj	216.227264601052	40	3	7	10	750	250	250	250	0	0	0	0	2000	0	BLOCKED	0.25	1	1	-1	attentive	At this moment	5	1	6	212	RTPJ	539.375113934278	0.456928838951311	n/a	n/a	n/a	n/a	2212.42068965517	0	1782.88041707344	-0.0797152594297207	0.000260900843524274	44.3625543654643	1941.44888547271	1	4	0	0	1	0	0
217.228001217216	2.5187530347109	punish_rtpj	219.746754251927	41	3	7	10	750	250	250	250	0	0	0	0	2000	0	BLOCKED	0.25	1	3	-1	upset	At this moment	1	1	6	212	RTPJ	323.841363430023	0.367041198501873	n/a	n/a	n/a	n/a	2217.79289940828	0	1117.17883563406	1.29295315670065	-0.000415637733660009	20.4318665284652	1858.48962336664	1	5	0	0	1	0	0
220.730760266185	2.53541593423486	punish_rtpj	223.26617620042	42	3	7	10	750	250	250	250	0	0	0	0	2000	0	BLOCKED	0.25	1	0	-1	distressed	At this moment	4	1	6	212	RTPJ	541.666416883469	0.363295880149813	n/a	n/a	n/a	n/a	2205.82745098039	0	1311.64732033016	1.03202366345623	-0.000301219560860718	25.7987062112414	1929.0760953113	1	6	0	0	1	0	0
224.266978755891	2.51885670399665	punish_rtpj	226.785835459888	43	3	7	10	750	250	250	250	0	0	0	0	2000	0	BLOCKED	0.25	1	6	1	determined	At this moment	4	1	6	212	RTPJ	827.569402903318	0.33832709113608	n/a	n/a	n/a	n/a	1886.17735849057	0	1433.2465674951	0.0988943708965247	0.000299146141884575	80.7224695003145	1775.30053804766	2	7	0	0	1	0	0
227.786561497599	2.51869978958368	punish_rtpj	230.305261287183	44	3	7	10	750	250	250	250	0	0	0	0	2000	0	BLOCKED	0.25	1	7	1	irritable	At this moment	2	1	6	212	RTPJ	472.871967345476	0.374531835205993	n/a	n/a	n/a	n/a	1818.49301397206	0.230591852421214	1099.22316227299	1.11050441344757	-0.000302677454833013	16.7826504711248	1815.27472527473	2	8	0	0	1	0	0
231.306091699392	6.0215625078082	panas_none	237.3276542072	45	5	8	10	n/a	n/a	n/a	n/a	n/a	n/a	n/a	n/a	2000	0	BLOCKED	n/a	n/a	+	0	afraid	At this moment	1	1	6	212	NONE	n/a	0	2675.69891397644	-1.99683217972465	0.000620407980505667	17.1670172405432	1251.57802746567	0	1355.40159035122	0.199259968511433	-0.000170985157252501	116.008142956747	1381.40353574174	2	1	0	1	0	0	0
238.32863765502	6.02146871179343	panas_none	244.350106366813	46	5	8	10	n/a	n/a	n/a	n/a	n/a	n/a	n/a	n/a	2000	0	BLOCKED	n/a	n/a	+	0	strong	At this moment	5	1	6	212	NONE	n/a	0	1641.52288762562	-0.800928772008269	0.000337119259456461	12.3387367886169	1464.11985018727	0	1821.9281594528	-0.81944420324745	0.000284527282872872	11.3054651500257	1371.18601076095	2	2	0	1	0	0	0
245.350734377056	6.02174057921766	panas_none	251.372474956274	47	5	8	10	n/a	n/a	n/a	n/a	n/a	n/a	n/a	n/a	2000	0	BLOCKED	n/a	n/a	+	0	jittery	At this moment	5	1	6	212	NONE	n/a	0	920.344799255491	0.17343496125136	3.65921766594778e-05	14.5899013354253	1448.41448189763	0	1545.8688878306	0.0218559510707262	-7.16866880299889e-05	22.9684552153716	1500.58877786318	2	3	0	1	0	0	0
252.356587108135	12.1432402860224	panas_none	264.499827394158	48	5	8	10	n/a	n/a	n/a	n/a	n/a	n/a	n/a	n/a	2000	0	BLOCKED	n/a	n/a	+	0	active	At this moment	3	1	6	212	NONE	n/a	0	1917.03307002384	0.184214817889619	-2.57405735701887e-05	13.7626560121445	2188.85518102372	0.461183704842429	n/a	n/a	n/a	n/a	1887.3880171184	9	4	0	1	0	0	0
265.500509707361	2.51875938180086	reward_vlpfc	268.019269089162	49	2	9	10	0	0	0	0	250	250	250	750	2000	0	BLOCKED	0.75	1	10	1	ashamed	At this moment	5	1	6	212	VLPFC	457.06134223938	0.374531835205993	n/a	n/a	n/a	n/a	1931.86027944112	0	1141.46281755657	1.13772957808348	-0.000262736084822626	23.4349766841293	1881.66410453497	1	1	1	0	0	0	0
269.020113606006	2.51863843435046	reward_vlpfc	271.538752040356	50	2	9	10	0	0	0	0	250	250	250	750	2000	0	BLOCKED	0.75	1	10	1	attentive	At this moment	5	1	6	212	VLPFC	356.551846474409	0	14929.9158162859	-11.6659638802642	0.00254682252093344	14.6945879167803	1748.16729088639	0.230591852421214	1122.03813629342	1.10558283984035	-0.000375890937425384	14.4150710659041	1756.95304695305	1	2	1	0	0	0	0
272.539560590297	2.51871742042903	reward_vlpfc	275.058278010726	51	2	9	10	0	0	0	0	250	250	250	750	2000	0	BLOCKED	0.75	1	6	1	alert	At this moment	1	1	6	212	VLPFC	373.092388033867	0.374531835205993	n/a	n/a	n/a	n/a	1847.12974051896	0	1049.18959892449	0.970702597942196	-0.000184000185483494	16.9642804621876	1736.88624135281	1	3	1	0	0	0	0
276.042472674847	2.51867087504269	reward_vlpfc	278.561143549889	52	2	9	10	0	0	0	0	250	250	250	750	2000	0	BLOCKED	0.75	1	6	1	upset	At this moment	5	1	6	212	VLPFC	389.869887977839	0.374531835205993	n/a	n/a	n/a	n/a	1715.10379241517	0	958.031367358752	1.25223571631734	-0.00040176475077885	22.5174336544304	1701.41660261337	1	4	1	0	0	0	0
279.546837540001	2.51771986794472	reward_vlpfc	282.064557407945	53	2	9	10	0	0	0	0	250	250	250	750	2000	0	BLOCKED	0.75	1	7	1	afraid	At this moment	1	1	6	212	VLPFC	354.58318772912	0.142322097378277	19265.2974637935	-16.3800221317438	0.00378477278128698	18.0681687998263	1721.34643377001	0	1243.94955075289	0.911490290939075	-0.000278476830906891	19.7548430614075	1778.51345119139	1	5	1	0	0	0	0
283.064829980582	2.51875303471093	reward_vlpfc	285.583583015293	54	2	9	10	0	0	0	0	250	250	250	750	2000	0	BLOCKED	0.75	1	0	-1	active	At this moment	5	1	6	212	VLPFC	457.368471384048	1	n/a	n/a	n/a	n/a	n/a	1	n/a	n/a	n/a	n/a	n/a	3	6	1	0	0	0	0
286.5843012954	2.51880381152034	reward_vlpfc	289.10310510692	55	2	9	10	0	0	0	0	250	250	250	750	2000	0	BLOCKED	0.75	1	1	-1	nervous	At this moment	2	1	6	212	VLPFC	473.088474005461	1	n/a	n/a	n/a	n/a	n/a	1	n/a	n/a	n/a	n/a	n/a	3	7	1	0	0	0	0
290.087071275473	2.53537855687739	reward_vlpfc	292.62244983235	56	2	9	10	0	0	0	0	250	250	250	750	2000	0	BLOCKED	0.75	1	10	1	determined	At this moment	1	1	6	212	VLPFC	658.668498396873	0.51685393258427	n/a	n/a	n/a	n/a	2046.80361757106	0.230591852421214	1190.7574647953	0.972245972729812	-0.000250018000924791	24.3412959617263	1865.46953046953	2	8	1	0	0	0	0
293.623465368271	6.02153112494943	panas_none	299.64499649322	57	5	10	10	n/a	n/a	n/a	n/a	n/a	n/a	n/a	n/a	2000	0	BLOCKED	n/a	n/a	+	0	attentive	At this moment	5	1	6	212	NONE	n/a	0	633.237701387157	0.0956600549690112	9.63091476968883e-05	13.7601955342665	1263.77777777778	0	1999.16999813491	-0.464629170422584	-1.72810018012326e-05	91.8089099679717	1593.16602613374	2	1	0	1	0	1	1
300.645676338136	6.02166194570066	panas_none	306.667338283837	58	5	10	10	n/a	n/a	n/a	n/a	n/a	n/a	n/a	n/a	2000	0	BLOCKED	n/a	n/a	+	0	inspired	At this moment	5	1	6	212	NONE	n/a	0	3116.78562856295	-1.98950505699882	0.000567820637771686	12.0124547916584	1473.33707865169	0	1651.02427533177	-0.164272441026682	-1.25166851382562e-05	30.5665995249605	1500.73097617218	1	2	0	1	0	1	1
307.651435978413	6.02157414415478	panas_none	313.673010122567	59	5	10	10	n/a	n/a	n/a	n/a	n/a	n/a	n/a	n/a	2000	0	BLOCKED	n/a	n/a	+	0	irritable	At this moment	1	1	6	212	NONE	n/a	0	1586.88874435091	-0.55654132613056	0.000251588985034717	18.8452251078263	1540.93008739076	0	1629.85860418974	-0.280558782116501	0.000132174338063745	57.8351517749647	1506.42736356649	3	3	0	1	0	1	1
314.657026362687	10.0916284929812	panas_none	324.748654855669	60	5	10	10	n/a	n/a	n/a	n/a	n/a	n/a	n/a	n/a	2000	0	BLOCKED	n/a	n/a	+	0	distressed	At this moment	4	1	6	212	NONE	n/a	0	1723.09790502169	0.202472069267876	-7.38232517044568e-07	18.7724182365043	2144.82397003745	0.257494235203689	n/a	n/a	n/a	n/a	1880.3115942029	6	4	0	1	0	1	1
325.749350215673	2.51882285282011	punish_vlpfc	328.268173068494	61	4	11	10	0	0	0	0	250	250	250	750	2000	0	BLOCKED	0.25	1	0	-1	ashamed	At this moment	2	1	6	212	VLPFC	40.4648756980896	0.760299625468165	n/a	n/a	n/a	n/a	2125.28645833333	0	988.033975665942	1.13231314835054	-0.000240926457154904	24.3903981150146	1742.8001537279	1	1	0	0	1	0	0
329.268972803026	2.51874950855972	punish_vlpfc	331.787722311586	62	4	11	10	0	0	0	0	250	250	250	750	2000	0	BLOCKED	0.25	-1	1	1	afraid	At this moment	4	1	6	212	VLPFC	56.3805805742741	1	n/a	n/a	n/a	n/a	n/a	1	n/a	n/a	n/a	n/a	n/a	2	2	0	0	1	0	0
332.788593979925	2.51867122763394	punish_vlpfc	335.307265207559	63	4	11	10	0	0	0	0	250	250	250	750	2000	0	BLOCKED	0.25	-1	10	-1	attentive	At this moment	2	1	6	212	VLPFC	157.207078695297	1	n/a	n/a	n/a	n/a	n/a	1	n/a	n/a	n/a	n/a	n/a	1	3	0	0	1	0	0
336.308007818222	2.51902807569502	punish_vlpfc	338.827035893917	64	4	11	10	0	0	0	0	250	250	250	750	2000	0	BLOCKED	0.25	-1	7	-1	active	At this moment	3	1	6	212	VLPFC	339.762710154057	1	n/a	n/a	n/a	n/a	n/a	1	n/a	n/a	n/a	n/a	n/a	2	4	0	0	1	0	0
339.812460132271	2.5172896756232	punish_vlpfc	342.329749807894	65	4	11	10	0	0	0	0	250	250	250	750	2000	0	BLOCKED	0.25	-1	9	-1	proud	At this moment	2	1	6	212	VLPFC	604.87823972106	1	n/a	n/a	n/a	n/a	n/a	1	n/a	n/a	n/a	n/a	n/a	1	5	0	0	1	0	0
343.313715623856	2.51872341489792	punish_vlpfc	345.832439038754	66	4	11	10	0	0	0	0	250	250	250	750	2000	0	BLOCKED	0.25	1	2	-1	determined	At this moment	4	1	6	212	VLPFC	323.018708795309	1	n/a	n/a	n/a	n/a	n/a	1	n/a	n/a	n/a	n/a	n/a	1	6	0	0	1	0	0
346.833216558456	2.51866029652956	punish_vlpfc	349.351876854986	67	4	11	10	0	0	0	0	250	250	250	750	2000	0	BLOCKED	0.25	1	4	-1	attentive	At this moment	5	1	6	212	VLPFC	440.529968708754	1	n/a	n/a	n/a	n/a	n/a	1	n/a	n/a	n/a	n/a	n/a	2	7	0	0	1	0	0
350.352927299947	2.5186236244142	punish_vlpfc	352.871550924361	68	4	11	10	0	0	0	0	250	250	250	750	2000	0	BLOCKED	0.25	1	9	1	inspired	At this moment	1	1	6	212	VLPFC	439.548283994198	0.632958801498127	n/a	n/a	n/a	n/a	1958.98979591837	0	829.639755616601	1.48497268753046	-0.000459453844738371	18.8772521373472	1713.97924673328	1	8	0	0	1	0	0
353.872518857062	6.02136081108449	panas_none	359.893879668146	69	5	12	10	n/a	n/a	n/a	n/a	n/a	n/a	n/a	n/a	2000	0	BLOCKED	n/a	n/a	+	0	jittery	At this moment	5	1	6	212	NONE	n/a	0.348314606741573	n/a	n/a	n/a	n/a	1177.2662835249	0	2097.48405265202	-1.3971937802527	0.000576737874288254	90.4908128507705	1410.15295926211	2	1	0	1	0	0	1
360.8947848351	6.0214563702047	panas_none	366.916241205305	70	5	12	10	n/a	n/a	n/a	n/a	n/a	n/a	n/a	n/a	2000	0	BLOCKED	n/a	n/a	+	0	interested	At this moment	5	1	6	212	NONE	n/a	0	2509.81360561081	-0.966110489231804	0.000192658941724147	13.5433006730334	1340.85393258427	0	1593.58370000844	-0.538161099917142	0.000271733551710954	36.2650361183006	1370.79400461184	0	2	0	1	0	0	1
367.900488056689	6.03809247091414	panas_none	373.938580527604	71	5	12	10	n/a	n/a	n/a	n/a	n/a	n/a	n/a	n/a	2000	0	BLOCKED	n/a	n/a	+	0	proud	At this moment	3	1	6	212	NONE	n/a	0.373283395755306	n/a	n/a	n/a	n/a	1397.38247011952	0	1376.22419292116	-0.28320528285785	0.000112063104150312	16.1619561277591	1231.55880092237	1	3	0	1	0	0	1
374.93944831714	7.27253246808056	panas_none	382.211980785221	72	5	12	10	n/a	n/a	n/a	n/a	n/a	n/a	n/a	n/a	2000	0	BLOCKED	n/a	n/a	+	0	distressed	At this moment	2	1	6	212	NONE	n/a	0	2885.95114613991	-0.94526430940401	0.000258569336586702	20.2578115618997	2054.94756554307	0.230591852421214	1400.0337636528	0.647367352963038	-0.00016845093006864	26.6342998515155	1813.38961038961	3	4	0	1	0	0	1
383.212902877748	2.5352967498302	reward_vlpfc	385.748199627578	73	2	13	10	0	0	0	0	250	250	250	750	2000	0	BLOCKED	0.75	1	8	1	ashamed	At this moment	5	1	6	212	VLPFC	539.898397028446	0.679151061173533	n/a	n/a	n/a	n/a	2116.97276264591	0	975.540186813405	1.35214797712946	-0.000381169889427328	16.3777722303436	1795.52805534204	1	1	1	0	0	0	0
386.749111141592	2.5185862470567	reward_vlpfc	389.267697388649	74	2	13	10	0	0	0	0	250	250	250	750	2000	0	BLOCKED	0.75	1	9	1	active	At this moment	2	1	6	212	VLPFC	439.882917165756	0.410736579275905	n/a	n/a	n/a	n/a	1888.99576271186	0	1161.18470004532	0.679863723145067	8.37134218516311e-05	56.8541097504066	1812.89239046887	1	2	1	0	0	0	0
390.268501354575	2.51887821361424	reward_vlpfc	392.787379568189	75	2	13	10	0	0	0	0	250	250	250	750	2000	0	BLOCKED	0.75	1	7	1	inspired	At this moment	4	1	6	212	VLPFC	324.420712560415	0.774032459425718	n/a	n/a	n/a	n/a	2183.72375690608	0	1369.85213272274	0.760087666189406	-0.000123020207004602	55.3994218776048	1912.14681014604	1	3	1	0	0	0	0
393.788012867689	2.51910424086452	reward_vlpfc	396.307117108554	76	2	13	10	0	0	0	0	250	250	250	750	2000	0	BLOCKED	0.75	1	1	-1	proud	At this moment	4	1	6	212	VLPFC	374.778953433037	1	n/a	n/a	n/a	n/a	n/a	1	n/a	n/a	n/a	n/a	n/a	1	4	1	0	0	0	0
397.307576920688	2.53544097003339	reward_vlpfc	399.843017890722	77	2	13	10	0	0	0	0	250	250	250	750	2000	0	BLOCKED	0.75	1	0	-1	excited	At this moment	4	1	6	212	VLPFC	306.264481514692	0.519350811485643	n/a	n/a	n/a	n/a	2104.02857142857	0.230591852421214	971.969508113552	1.34707100157484	-0.000377490019813983	24.7543392436309	1826.67432567433	2	5	1	0	0	0	0
400.843826440662	2.51873258295655	reward_vlpfc	403.362559023619	78	2	13	10	0	0	0	0	250	250	250	750	2000	0	BLOCKED	0.75	1	9	1	determined	At this moment	3	1	6	212	VLPFC	205.93799379468	0.468164794007491	n/a	n/a	n/a	n/a	1732.31690140845	0.230591852421214	1351.38661810956	0.628639950679233	-0.000133918540171597	14.430178457476	1804.56543456543	2	6	1	0	0	0	0
404.346750514209	2.51855274844172	reward_vlpfc	406.865303262651	79	2	13	10	0	0	0	0	250	250	250	750	2000	0	BLOCKED	0.75	1	8	1	active	At this moment	2	1	6	212	VLPFC	359.733859062195	0.764044943820225	n/a	n/a	n/a	n/a	2121.00529100529	0	1334.96381832513	0.830865570767298	-0.000226481481216831	12.1586760145247	1845.5810914681	1	7	1	0	0	0	0
407.849673529893	2.51851783940197	reward_vlpfc	410.368191369295	80	2	13	10	0	0	0	0	250	250	250	750	2000	0	BLOCKED	0.75	1	8	1	distressed	At this moment	3	1	6	212	VLPFC	389.727430850267	1	n/a	n/a	n/a	n/a	n/a	1	n/a	n/a	n/a	n/a	n/a	2	8	1	0	0	0	0
411.369209020942	6.02124550545216	panas_none	417.390454526395	81	5	14	10	n/a	n/a	n/a	n/a	n/a	n/a	n/a	n/a	2000	0	BLOCKED	n/a	n/a	+	0	afraid	At this moment	1	1	6	212	NONE	n/a	0	2554.38252304672	-1.8797091116627	0.000590958256978857	23.79593111541	1243.52309612984	0	2362.69269914034	-1.32090282837644	0.00043176038935105	112.628900499722	1614.18370484243	3	1	0	1	0	1	1
418.378649978966	6.03431030476094	panas_none	424.412960283726	82	5	14	10	n/a	n/a	n/a	n/a	n/a	n/a	n/a	n/a	2000	0	BLOCKED	n/a	n/a	+	0	scared	At this moment	1	1	6	212	NONE	n/a	0.111111111111111	1449.20755298349	-0.171759044550512	0.000130083260883107	16.6974939920245	1652.3441011236	0	1812.33448269575	-0.423920020428908	0.000201463290766818	26.9011986478688	1625.89392774789	3	2	0	1	0	1	1
425.413641186476	6.02168310269718	panas_none	431.435324289173	83	5	14	10	n/a	n/a	n/a	n/a	n/a	n/a	n/a	n/a	2000	0	BLOCKED	n/a	n/a	+	0	proud	At this moment	3	1	6	212	NONE	n/a	0	-1003.14700310803	2.08889904111272	-0.000395237662407832	25.1719239551621	1620.02996254682	0	1367.98142155459	0.883595577979891	-0.000498786296275913	16.4637692790265	1688.14604150653	4	3	0	1	0	1	1
432.438156858683	6.92024939870834	panas_none	439.358406257391	84	5	14	10	n/a	n/a	n/a	n/a	n/a	n/a	n/a	n/a	2000	0	BLOCKED	n/a	n/a	+	0	attentive	At this moment	2	1	6	212	NONE	n/a	0.382022471910112	n/a	n/a	n/a	n/a	1976.09292929293	0.609531129900077	n/a	n/a	n/a	n/a	1501.13976377953	5	4	0	1	0	1	1
440.359377363622	2.51851255017522	punish_rtpj	442.877889913797	85	3	15	10	750	250	250	250	0	0	0	0	2000	0	BLOCKED	0.25	-1	3	1	active	At this moment	5	1	6	212	RTPJ	256.16329818964	0.448189762796504	n/a	n/a	n/a	n/a	2018.49773755656	0	1114.32884331191	1.28213701829003	-0.000289257174274264	39.7940320875705	1955.4573405073	1	1	0	0	1	0	0
443.883153422445	2.51427092453838	punish_rtpj	446.397424346983	86	3	15	10	750	250	250	250	0	0	0	0	2000	0	BLOCKED	0.25	-1	9	-1	scared	At this moment	2	1	6	212	RTPJ	335.209018796682	0.488139825218477	n/a	n/a	n/a	n/a	2144.00975609756	0.230591852421214	1320.30382518233	0.995606209113341	-0.000325271408811686	19.4525893427182	1896.88211788212	2	2	0	0	1	0	0
447.381548840404	2.51879005944727	punish_rtpj	449.900338899851	87	3	15	10	750	250	250	250	0	0	0	0	2000	0	BLOCKED	0.25	-1	10	-1	proud	At this moment	2	1	6	212	RTPJ	189.637584120035	0.374531835205993	n/a	n/a	n/a	n/a	2273.50499001996	0	1541.39108548201	0.433514043871329	8.17219298206635e-05	51.8681575785275	1981.65411222137	1	3	0	0	1	0	0
450.884307889342	2.51922342529889	punish_rtpj	453.403531314641	88	3	15	10	750	250	250	250	0	0	0	0	2000	0	BLOCKED	0.25	-1	6	-1	interested	At this moment	4	1	6	212	RTPJ	356.42984110117	0.585518102372035	n/a	n/a	n/a	n/a	2029.72289156627	0.242890084550346	1563.98735038292	0.685024489128889	-0.000255873464445242	23.3869765747506	1925.14314720812	3	4	0	0	1	0	0
454.403924834847	2.51878300711513	punish_rtpj	456.922707841963	89	3	15	10	750	250	250	250	0	0	0	0	2000	0	BLOCKED	0.25	-1	9	-1	attentive	At this moment	2	1	6	212	RTPJ	122.621732920408	0	5437.93509792391	-2.70309273295331	0.000536254590914746	63.1664009116333	2153.99875156055	0.230591852421214	1525.13631377926	0.354229887223309	5.74115061546763e-05	18.0795322547214	1924.04695304695	1	5	0	0	1	0	0
457.923438816249	2.51895050004129	punish_rtpj	460.442389316291	90	3	15	10	750	250	250	250	0	0	0	0	2000	0	BLOCKED	0.25	-1	8	-1	alert	At this moment	5	1	6	212	RTPJ	190.355511635542	0	8539.31038540069	-5.92862718776038	0.00133864812940846	45.4963455272349	2063.4581772784	0	1173.64434661535	1.24896255889891	-0.000384208821654371	15.0709191711606	1910.01691006918	0	6	0	0	1	0	0
461.426244410574	2.51877736526728	punish_rtpj	463.945021775842	91	3	15	10	750	250	250	250	0	0	0	0	2000	0	BLOCKED	0.25	-1	10	-1	inspired	At this moment	2	1	6	212	RTPJ	407.625546514988	0	13346.7420595673	-10.4473188299287	0.00238479911610926	21.5470565370035	2023.58177278402	0	1280.2570866081	0.768937936653625	-0.000187293434336401	12.4602840500304	1772.09069946195	0	7	0	0	1	0	0
464.929217497826	2.51865818083286	punish_rtpj	467.447875678658	92	3	15	10	750	250	250	250	0	0	0	0	2000	0	BLOCKED	0.25	1	8	1	irritable	At this moment	3	1	6	212	RTPJ	689.922674715519	0.14481897627965	20581.4292926875	-16.5007722401677	0.00359416763857026	16.1146974975855	1954.94890510949	0	1418.26141118407	0.742452652265286	-9.82519443947598e-05	27.1856550070429	1965.29900076864	1	8	0	0	1	0	0
468.448669066101	6.02149198448654	panas_none	474.470161050588	93	5	16	10	n/a	n/a	n/a	n/a	n/a	n/a	n/a	n/a	2000	0	BLOCKED	n/a	n/a	+	0	hostile	At this moment	1	1	6	212	NONE	n/a	0	2179.41304791168	-1.30200717086375	0.000381429517091725	16.9788578469964	1147.83395755306	0.0222905457340507	2490.81889230824	-0.63998331689941	-0.00016722468363661	71.5548154648291	1760.16037735849	4	1	0	1	0	0	0
475.477544843137	6.01504862055185	panas_none	481.492593463689	94	5	16	10	n/a	n/a	n/a	n/a	n/a	n/a	n/a	n/a	2000	0	BLOCKED	n/a	n/a	+	0	excited	At this moment	5	1	6	212	NONE	n/a	0	5284.3498115865	-4.05976816793786	0.00103286117659443	16.226576912747	1368.20599250936	0	1571.14664034094	-0.472327987974552	0.000342237954783923	20.3151527322951	1457.13143735588	2	2	0	1	0	0	0
482.478156985641	6.02016861423851	panas_none	488.498325599879	95	5	16	10	n/a	n/a	n/a	n/a	n/a	n/a	n/a	n/a	2000	0	BLOCKED	n/a	n/a	+	0	enthusiastic	At this moment	5	1	6	212	NONE	n/a	0	3633.16103214608	-2.36740398387381	0.000621128314045338	12.5612062980543	1433.93632958802	0	1454.25424821276	-0.182543113539407	0.000113292535703116	25.4126274038407	1397.71790930054	3	3	0	1	0	0	0
489.499142260015	8.85704815441375	panas_none	498.356190414429	96	5	16	10	n/a	n/a	n/a	n/a	n/a	n/a	n/a	n/a	2000	0	BLOCKED	n/a	n/a	+	0	distressed	At this moment	3	1	6	212	NONE	n/a	0.188514357053683	5143.35032252003	-2.030517570889	0.000296962407283257	47.6719811932233	2111.73230769231	0.517294388931591	n/a	n/a	n/a	n/a	1688.63057324841	3	4	0	1	0	0	0
