onset	duration	trial_type	offset	trial	block	blockCntr	frequency	amplitude_1	amplitude_2	amplitude_3	amplitude_4	amplitude_5	amplitude_6	amplitude_7	amplitude_8	transition	sham	mode	rewardFraction	guess	outcome	correct	word	when	answer	runNr	scanNr	subjectNr	target	reactionTime	outcomeEyeClosed	outcomeParms_1	outcomeParms_2	outcomeParms_3	outcomeSigma	outcomePupilArea	guessEyeClosed	guessParms_1	guessParms_2	guessParms_3	guessSigma	guessPupilArea	nrBlinks	trialInBlock	isReward	isPanas	isPunish	beforePanasReward	beforePanasVLPFC
20.4150058128834	2.55315854603052	punish_rtpj	22.9681643589139	1	3	1	10	750	250	250	250	0	0	0	0	2000	0	BLOCKED	0.25	-1	7	-1	alert	At this moment	1	1	6	234	RTPJ	1514.09849500656	1	n/a	n/a	n/a	n/a	n/a	1	n/a	n/a	n/a	n/a	n/a	2	1	0	0	1	0	0
23.9521954088807	2.51873928266764	punish_rtpj	26.4709346915483	2	3	1	10	750	250	250	250	0	0	0	0	2000	0	BLOCKED	0.25	1	4	-1	irritable	At this moment	1	1	6	234	RTPJ	641.517577409744	1	n/a	n/a	n/a	n/a	n/a	1	n/a	n/a	n/a	n/a	n/a	1	2	0	0	1	0	0
27.4551258295178	2.51864901280403	punish_rtpj	29.9737748423219	3	3	1	10	750	250	250	250	0	0	0	0	2000	0	BLOCKED	0.25	1	1	-1	nervous	At this moment	4	1	6	234	RTPJ	391.975009322166	1	n/a	n/a	n/a	n/a	n/a	1	n/a	n/a	n/a	n/a	n/a	0	3	0	0	1	0	0
30.957859842658	2.51880698502064	punish_rtpj	33.4766668276787	4	3	1	10	750	250	250	250	0	0	0	0	2000	0	BLOCKED	0.25	-1	8	-1	upset	At this moment	5	1	6	234	RTPJ	442.854065060616	1	n/a	n/a	n/a	n/a	n/a	1	n/a	n/a	n/a	n/a	n/a	0	4	0	0	1	0	0
34.4774450526834	2.51892299592495	punish_rtpj	36.9963680486083	5	3	1	10	750	250	250	250	0	0	0	0	2000	0	BLOCKED	0.25	1	1	-1	distressed	At this moment	3	1	6	234	RTPJ	374.706314384937	1	n/a	n/a	n/a	n/a	n/a	1	n/a	n/a	n/a	n/a	n/a	1	5	0	0	1	0	0
37.9802573467493	2.51875656086207	punish_rtpj	40.4990139076114	6	3	1	10	750	250	250	250	0	0	0	0	2000	0	BLOCKED	0.25	1	10	1	active	At this moment	1	1	6	234	RTPJ	491.218963980675	1	n/a	n/a	n/a	n/a	n/a	1	n/a	n/a	n/a	n/a	n/a	0	6	0	0	1	0	0
41.4999116695523	2.51865818083287	punish_rtpj	44.0185698503852	7	3	1	10	750	250	250	250	0	0	0	0	2000	0	BLOCKED	0.25	-1	7	-1	proud	At this moment	1	1	6	234	RTPJ	607.022854149342	0.948813982521848	n/a	n/a	n/a	n/a	2326.78048780488	0.867794004611837	n/a	n/a	n/a	n/a	2520.13372093023	12	7	0	0	1	0	0
45.0025910271406	2.51920685231686	punish_rtpj	47.5217978794575	8	3	1	10	750	250	250	250	0	0	0	0	2000	0	BLOCKED	0.25	-1	0	1	strong	At this moment	5	1	6	234	RTPJ	591.207292377949	0.759051186017478	n/a	n/a	n/a	n/a	2299.42487046632	0.230591852421214	1801.72839839677	1.42008594406442	-0.000491105092728437	137.399982231945	2591.85014985015	4	8	0	0	1	0	0
48.5341994068623	6.00954815351963	panas_none	54.5437475603819	9	5	2	10	n/a	n/a	n/a	n/a	n/a	n/a	n/a	n/a	2000	0	BLOCKED	n/a	n/a	+	0	irritable	At this moment	3	1	6	234	NONE	n/a	0	-1983.65998122456	2.67770548588205	-0.000444633811832667	32.9835841620452	1655.06866416979	0	1705.83181222371	0.861079480591379	-0.000769602673273975	42.9221975080298	1776.72559569562	2	1	0	1	0	0	0
55.5444700718522	6.02165736174583	panas_none	61.566127433598	10	5	2	10	n/a	n/a	n/a	n/a	n/a	n/a	n/a	n/a	2000	0	BLOCKED	n/a	n/a	+	0	alert	At this moment	4	1	6	234	NONE	n/a	0	2381.97217620297	-0.332043405050657	0.000123795208665319	28.989472699237	2239.0936329588	0.229823212913144	1126.41577945012	2.18835805385888	-0.0011456426957135	51.4663485187469	1938.51497005988	3	2	0	1	0	0	0
62.5669486777186	6.02154311394692	panas_none	68.5884917916656	11	5	2	10	n/a	n/a	n/a	n/a	n/a	n/a	n/a	n/a	2000	0	BLOCKED	n/a	n/a	+	0	excited	At this moment	4	1	6	234	NONE	n/a	0	775.868573613955	0.78572978996344	-0.000132932413317295	22.5435723145099	1834.48564294632	0.229823212913144	1555.72883386618	0.0196475259697131	0.000127373322464055	49.1573032166672	1695.12175648703	4	3	0	1	0	0	0
69.5726868084073	5.12076379585265	panas_none	74.69345060426	12	5	2	10	n/a	n/a	n/a	n/a	n/a	n/a	n/a	n/a	2000	0	BLOCKED	n/a	n/a	+	0	distressed	At this moment	5	1	6	234	NONE	n/a	0.374531835205993	n/a	n/a	n/a	n/a	2733.41716566866	0.673328209069946	n/a	n/a	n/a	n/a	2201.73411764706	6	4	0	1	0	0	0
75.6943000577092	2.51867969053984	punish_rtpj	78.2129797482491	13	3	3	10	750	250	250	250	0	0	0	0	2000	0	BLOCKED	0.25	1	3	-1	enthusiastic	At this moment	1	1	6	234	RTPJ	707.515071749687	0.374531835205993	n/a	n/a	n/a	n/a	2832.19161676647	0.461183704842429	n/a	n/a	n/a	n/a	2273.98002853067	3	1	0	0	1	0	0
79.1972509301305	2.51847517281772	punish_rtpj	81.7157261029482	14	3	3	10	750	250	250	250	0	0	0	0	2000	0	BLOCKED	0.25	-1	7	-1	inspired	At this moment	5	1	6	234	RTPJ	373.118129074574	0.749063670411985	n/a	n/a	n/a	n/a	2480.03482587065	0.230591852421214	1796.71397437405	1.03561191843074	-0.000144455316601986	99.7829101479627	2654.14585414585	3	2	0	0	1	0	0
82.7001926345229	2.51860634613037	punish_rtpj	85.2187989806533	15	3	3	10	750	250	250	250	0	0	0	0	2000	0	BLOCKED	0.25	1	10	1	proud	At this moment	1	1	6	234	RTPJ	540.331410288811	0.415730337078652	n/a	n/a	n/a	n/a	2124.83760683761	0.544965411222137	n/a	n/a	n/a	n/a	2939.66554054054	6	3	0	0	1	0	0
86.2028057001233	2.51871495211125	punish_rtpj	88.7215206522346	16	3	3	10	750	250	250	250	0	0	0	0	2000	0	BLOCKED	0.25	1	2	-1	distressed	At this moment	4	1	6	234	RTPJ	390.382592618465	0.637952559300874	n/a	n/a	n/a	n/a	2603.75172413793	0.230591852421214	1573.04148513965	0.645556517973439	4.1366654733463e-05	35.3512221410309	2235.08591408591	3	4	0	0	1	0	0
89.7055189089179	2.51875338733196	punish_rtpj	92.2242722962499	17	3	3	10	750	250	250	250	0	0	0	0	2000	0	BLOCKED	0.25	1	7	1	alert	At this moment	2	1	6	234	RTPJ	840.730819165707	0.749063670411985	n/a	n/a	n/a	n/a	2283.43781094527	0.461183704842429	n/a	n/a	n/a	n/a	2659.00142653352	4	5	0	0	1	0	0
93.2087384752035	2.51851431328058	punish_rtpj	95.7272527884841	18	3	3	10	750	250	250	250	0	0	0	0	2000	0	BLOCKED	0.25	-1	7	-1	upset	At this moment	4	1	6	234	RTPJ	307.589967489243	0.710362047440699	n/a	n/a	n/a	n/a	2752.38362068966	0.230591852421214	1825.41866347894	1.20784755277543	-0.000331290453761831	59.000138822025	2648.14485514486	3	6	0	0	1	0	0
96.7113889181614	2.51865218639374	punish_rtpj	99.2300411045551	19	3	3	10	750	250	250	250	0	0	0	0	2000	0	BLOCKED	0.25	-1	7	-1	guilty	At this moment	2	1	6	234	RTPJ	473.302512347698	0.374531835205993	n/a	n/a	n/a	n/a	2570.99401197605	0.750192159877018	n/a	n/a	n/a	n/a	2466.27076923077	5	7	0	0	1	0	0
100.214085906565	2.51881015866995	punish_rtpj	102.732896065235	20	3	3	10	750	250	250	250	0	0	0	0	2000	0	BLOCKED	0.25	-1	9	-1	enthusiastic	At this moment	1	1	6	234	RTPJ	340.224638044834	1	n/a	n/a	n/a	n/a	n/a	0.694081475787856	n/a	n/a	n/a	n/a	2606.66834170854	13	8	0	0	1	0	0
103.716967313528	6.02170813852548	panas_none	109.738675452054	21	5	4	10	n/a	n/a	n/a	n/a	n/a	n/a	n/a	n/a	2000	0	BLOCKED	n/a	n/a	+	0	inspired	At this moment	1	1	6	234	NONE	n/a	0	1967.68885155171	-0.652428454080791	0.000233696810350012	30.7220114608336	1642.10861423221	0.110684089162183	1841.9864916495	0.446452242047216	-0.000476261666130418	57.7115637244959	1800.09248055315	6	1	0	1	0	0	0
110.722723780274	6.02192393988371	panas_none	116.744647720158	22	5	4	10	n/a	n/a	n/a	n/a	n/a	n/a	n/a	n/a	2000	0	BLOCKED	n/a	n/a	+	0	scared	At this moment	3	1	6	234	NONE	n/a	0.373283395755306	n/a	n/a	n/a	n/a	2518.50398406375	0.464258262874712	n/a	n/a	n/a	n/a	2594.10473457676	6	2	0	1	0	0	0
117.728462263525	6.02148634260892	panas_none	123.749948606133	23	5	4	10	n/a	n/a	n/a	n/a	n/a	n/a	n/a	n/a	2000	0	BLOCKED	n/a	n/a	+	0	attentive	At this moment	4	1	6	234	NONE	n/a	0	2040.08500761838	-0.277585568168944	8.28100862814683e-05	18.2554931836289	1826.3670411985	0.149116064565719	2123.33896654835	-0.132469170295232	3.67686078180088e-05	49.6600541825463	2034.6820234869	4	3	0	1	0	0	0
124.734223314285	14.2782494416833	panas_none	139.012472755969	24	5	4	10	n/a	n/a	n/a	n/a	n/a	n/a	n/a	n/a	2000	0	BLOCKED	n/a	n/a	+	0	alert	At this moment	4	1	6	234	NONE	n/a	0	14262.0403460909	-10.7810120471136	0.00251101005723949	51.8875670196419	2832.30961298377	0.63412759415834	n/a	n/a	n/a	n/a	2368.79201680672	19	4	0	1	0	0	0
139.996725601852	2.51854992753266	reward_rtpj	142.515275529385	25	1	5	10	750	250	250	250	0	0	0	0	2000	0	BLOCKED	0.75	-1	1	1	proud	At this moment	1	1	6	234	RTPJ	356.471097290516	0.374531835205993	n/a	n/a	n/a	n/a	2341.97205588822	0.230591852421214	1088.52008051212	1.72191960157889	-0.000209693825089509	50.5013099102733	2495.92807192807	2	1	1	0	0	0	0
143.516055517375	2.51866064918042	reward_rtpj	146.034716166556	26	1	5	10	750	250	250	250	0	0	0	0	2000	0	BLOCKED	0.75	1	9	1	strong	At this moment	3	1	6	234	RTPJ	440.712624192238	0.374531835205993	n/a	n/a	n/a	n/a	2461.22954091816	0.230591852421214	1679.13745262582	1.14343325525973	-0.000241728764741654	46.5571878449558	2512.39460539461	2	2	1	0	0	0	0
147.018765905261	2.51871213120222	reward_rtpj	149.537478036463	27	1	5	10	750	250	250	250	0	0	0	0	2000	0	BLOCKED	0.75	1	10	1	afraid	At this moment	5	1	6	234	RTPJ	573.333859920502	0	18067.472827019	-14.5933238718811	0.00332905494902083	53.4629241069547	2278.98876404494	0.220599538816295	567.567770803124	3.54987679416746	-0.00152886606900448	53.5995195626739	2454.94970414201	1	3	1	0	0	0	0
150.538747808993	2.51835598838329	reward_rtpj	153.057103797376	28	1	5	10	750	250	250	250	0	0	0	0	2000	0	BLOCKED	0.75	1	10	1	active	At this moment	4	1	6	234	RTPJ	689.875424027443	0	24304.2606418332	-19.8691197682814	0.00445745428422461	34.5457329589194	2426.22596754057	0.461183704842429	n/a	n/a	n/a	n/a	2613.62910128388	2	4	1	0	0	0	0
154.041214186072	2.51876749199627	reward_rtpj	156.559981678069	29	1	5	10	750	250	250	250	0	0	0	0	2000	0	BLOCKED	0.75	-1	0	1	excited	At this moment	4	1	6	234	RTPJ	372.959098935127	0.374531835205993	n/a	n/a	n/a	n/a	2626.64071856287	0.461183704842429	n/a	n/a	n/a	n/a	2631.84736091298	3	5	1	0	0	0	0
157.543972177148	2.51881192171572	reward_rtpj	160.062784098864	30	1	5	10	750	250	250	250	0	0	0	0	2000	0	BLOCKED	0.75	-1	7	-1	nervous	At this moment	1	1	6	234	RTPJ	507.684045672417	0.677902621722846	n/a	n/a	n/a	n/a	2529.08139534884	0.335895465026902	n/a	n/a	n/a	n/a	2684.7650462963	4	6	1	0	0	0	0
161.046825374722	2.5189011337161	reward_rtpj	163.565726508439	31	1	5	10	750	250	250	250	0	0	0	0	2000	0	BLOCKED	0.75	1	4	-1	ashamed	At this moment	5	1	6	234	RTPJ	340.187965869904	0.374531835205993	n/a	n/a	n/a	n/a	2179.07984031936	0.63489623366641	n/a	n/a	n/a	n/a	2345.74105263158	4	7	1	0	0	0	0
164.549888379276	2.51872200441363	reward_rtpj	167.068610383689	32	1	5	10	750	250	250	250	0	0	0	0	2000	0	BLOCKED	0.75	-1	3	1	alert	At this moment	3	1	6	234	RTPJ	322.798675954342	0.374531835205993	n/a	n/a	n/a	n/a	2228.7125748503	0.210607225211376	980.800128967962	2.62848898155436	-0.000920179907786859	59.7648175733813	2597.51898734177	2	8	1	0	0	0	0
168.069269776762	6.02177548831702	panas_none	174.091045265079	33	5	6	10	n/a	n/a	n/a	n/a	n/a	n/a	n/a	n/a	2000	0	BLOCKED	n/a	n/a	+	0	inspired	At this moment	2	1	6	234	NONE	n/a	0	210.38497149951	1.35213361602597	-0.000230680085347159	22.4669731385933	2023.75280898876	0.06456571867794	522.993073510335	4.21876203693699	-0.00226856625391552	81.9065826291802	2203.12243221035	6	1	0	1	0	1	0
175.074971587956	6.02158366477488	panas_none	181.096555252731	34	5	6	10	n/a	n/a	n/a	n/a	n/a	n/a	n/a	n/a	2000	0	BLOCKED	n/a	n/a	+	0	nervous	At this moment	3	1	6	234	NONE	n/a	0	321.123420794991	1.51078643350716	-0.000373801621359957	20.2658824918691	1825.03121098627	0	1920.15398003076	-0.536473782522645	0.000307950613180978	27.6543772074983	1729.53497309762	3	2	0	1	0	1	0
182.080560561776	6.0216224526167	panas_none	188.102183014393	35	5	6	10	n/a	n/a	n/a	n/a	n/a	n/a	n/a	n/a	2000	0	BLOCKED	n/a	n/a	+	0	distressed	At this moment	2	1	6	234	NONE	n/a	0.0549313358302122	2385.635317148	-0.830389727423635	0.000258860538645723	22.8779939634254	1789.96565389696	0	1883.85903517801	-0.586986316005638	0.000312866394862987	33.4114802697624	1654.96771714066	4	3	0	1	0	1	0
189.086349469244	5.5878549659252	panas_none	194.67420443517	36	5	6	10	n/a	n/a	n/a	n/a	n/a	n/a	n/a	n/a	2000	0	BLOCKED	n/a	n/a	+	0	afraid	At this moment	5	1	6	234	NONE	n/a	0.384519350811486	n/a	n/a	n/a	n/a	2869.43002028398	0.461183704842429	n/a	n/a	n/a	n/a	2461.53209700428	8	4	0	1	0	1	0
195.658468212187	2.51857425802945	punish_vlpfc	198.177042470217	37	4	7	10	0	0	0	0	250	250	250	750	2000	0	BLOCKED	0.25	1	2	-1	active	At this moment	2	1	6	234	VLPFC	656.58806014061	0.374531835205993	n/a	n/a	n/a	n/a	2937.30738522954	0.461183704842429	n/a	n/a	n/a	n/a	2773.39229671897	3	1	0	0	1	0	0
199.178021686614	2.51866100186109	punish_vlpfc	201.696682688475	38	4	7	10	0	0	0	0	250	250	250	750	2000	0	BLOCKED	0.25	1	4	-1	scared	At this moment	5	1	6	234	VLPFC	339.759536623955	0.762796504369538	n/a	n/a	n/a	n/a	2832.05789473684	0.308993082244427	n/a	n/a	n/a	n/a	2848.89210233593	4	2	0	0	1	0	0
202.680709859669	2.51872447270156	punish_vlpfc	205.199434332371	39	4	7	10	0	0	0	0	250	250	250	750	2000	0	BLOCKED	0.25	-1	8	-1	excited	At this moment	2	1	6	234	VLPFC	290.141085445881	0.571785268414482	n/a	n/a	n/a	n/a	2844.45481049563	0.230591852421214	2096.29350421626	1.22121907101466	-0.000288420609915729	77.4767690170572	3001.7982017982	3	3	0	0	1	0	0
206.183526385069	2.51871636259557	punish_vlpfc	208.702242747664	40	4	7	10	0	0	0	0	250	250	250	750	2000	0	BLOCKED	0.25	1	8	1	inspired	At this moment	4	1	6	234	VLPFC	290.156953215599	0.409488139825218	n/a	n/a	n/a	n/a	2862.01268498943	0.210607225211376	1257.89957635375	2.77261010829488	-0.000931342959430232	47.2339585820206	3005.98734177215	2	4	0	0	1	0	0
209.686406028926	2.51881474262476	punish_vlpfc	212.205220771551	41	4	7	10	0	0	0	0	250	250	250	750	2000	0	BLOCKED	0.25	-1	0	1	proud	At this moment	1	1	6	234	VLPFC	506.628311395645	0.374531835205993	n/a	n/a	n/a	n/a	2707.63473053892	0.230591852421214	2244.37751792531	1.14700229969139	-0.000291205896591641	53.2563455844805	2991.06193806194	2	5	0	0	1	0	0
213.205932351947	2.51872870415448	punish_vlpfc	215.724661056101	42	4	7	10	0	0	0	0	250	250	250	750	2000	0	BLOCKED	0.25	1	4	-1	guilty	At this moment	3	1	6	234	VLPFC	406.567343950272	0.488139825218477	n/a	n/a	n/a	n/a	2612.08780487805	0.230591852421214	1873.92066807291	1.03523148555326	-5.47973480110134e-05	76.4931552812133	2801.95504495504	4	6	0	0	1	0	0
216.708736888468	2.5187047261596	punish_vlpfc	219.227441614628	43	4	7	10	0	0	0	0	250	250	250	750	2000	0	BLOCKED	0.25	1	4	-1	determined	At this moment	3	1	6	234	VLPFC	323.27259272337	0.413233458177278	n/a	n/a	n/a	n/a	2753.56382978723	0.653343581860108	n/a	n/a	n/a	n/a	2843.82261640798	4	7	0	0	1	0	0
220.217622651577	2.51271800082924	punish_vlpfc	222.730340652406	44	4	7	10	0	0	0	0	250	250	250	750	2000	0	BLOCKED	0.25	-1	10	-1	active	At this moment	1	1	6	234	VLPFC	150.227737426758	0.374531835205993	n/a	n/a	n/a	n/a	2934.08383233533	0.600307455803228	n/a	n/a	n/a	n/a	2926.50961538462	5	8	0	0	1	0	0
223.731127692759	6.02146483302116	panas_none	229.75259252578	45	5	8	10	n/a	n/a	n/a	n/a	n/a	n/a	n/a	n/a	2000	0	BLOCKED	n/a	n/a	+	0	ashamed	At this moment	3	1	6	234	NONE	n/a	0	1104.68909286916	0.60256860033777	-8.6776520540753e-05	26.3904988259595	1982.51310861423	0.399692544196772	n/a	n/a	n/a	n/a	2252.07298335467	9	1	0	1	0	0	1
230.736750870407	6.02164290440081	panas_none	236.758393774807	46	5	8	10	n/a	n/a	n/a	n/a	n/a	n/a	n/a	n/a	2000	0	BLOCKED	n/a	n/a	+	0	guilty	At this moment	1	1	6	234	NONE	n/a	0	8494.41254423945	-3.82502384941809	0.000558710281093693	57.350252698064	2953.31335830212	0.700999231360492	n/a	n/a	n/a	n/a	2811.18251928021	7	2	0	1	0	0	1
237.742419888198	6.02165242505072	panas_none	243.764072313249	47	5	8	10	n/a	n/a	n/a	n/a	n/a	n/a	n/a	n/a	2000	0	BLOCKED	n/a	n/a	+	0	inspired	At this moment	1	1	6	234	NONE	n/a	0.101123595505618	-600.854882117342	2.22236966656539	-0.000506459333184342	43.0283744584766	1807.52638888889	0.0146041506533436	2381.14335956409	-0.979806001860876	0.000558326661144403	31.971275121732	2022.33385335413	5	3	0	1	0	0	1
244.748198922336	12.7436667405963	panas_none	257.491865662932	48	5	8	10	n/a	n/a	n/a	n/a	n/a	n/a	n/a	n/a	2000	0	BLOCKED	n/a	n/a	+	0	interested	At this moment	1	1	6	234	NONE	n/a	0.0861423220973783	6776.18644300998	-4.20797846030562	0.00107987141017321	46.0163277042605	2741.68715846995	0.681783243658724	n/a	n/a	n/a	n/a	2084.26811594203	15	4	0	1	0	0	1
258.492699248731	2.51868674278262	reward_vlpfc	261.011385991514	49	2	9	10	0	0	0	0	250	250	250	750	2000	0	BLOCKED	0.75	1	8	1	proud	At this moment	5	1	6	234	VLPFC	656.878263711929	0.369538077403246	n/a	n/a	n/a	n/a	2218.59603960396	0	1596.54251237894	0.594945383971081	-0.000104848665167842	49.1262231679442	2014.16141429669	1	1	1	0	0	0	0
261.995425504327	2.51880381149056	reward_vlpfc	264.514229315817	50	2	9	10	0	0	0	0	250	250	250	750	2000	0	BLOCKED	0.75	1	10	1	hostile	At this moment	1	1	6	234	VLPFC	323.705605983734	0.374531835205993	n/a	n/a	n/a	n/a	2485.93612774451	0.230591852421214	1581.01488776271	1.32106005473219	-0.000200577988969646	77.0531054182093	2654.58341658342	2	2	1	0	0	0	0
265.498578426063	2.51850690823795	reward_vlpfc	268.017085334301	51	2	9	10	0	0	0	0	250	250	250	750	2000	0	BLOCKED	0.75	-1	0	1	strong	At this moment	4	1	6	234	VLPFC	340.473585247993	0.677902621722846	n/a	n/a	n/a	n/a	2434.20930232558	0.230591852421214	2146.10972955541	1.18999376897652	-0.000515767205961697	71.4690259397989	2764.59440559441	3	3	1	0	0	0	0
269.001205596328	2.51882179492713	reward_vlpfc	271.520027391255	52	2	9	10	0	0	0	0	250	250	250	750	2000	0	BLOCKED	0.75	-1	10	-1	afraid	At this moment	5	1	6	234	VLPFC	323.075832664967	0.374531835205993	n/a	n/a	n/a	n/a	2588.90618762475	0.213681783243659	1144.17888917384	2.34087581009689	-0.000773692136909054	47.204501276378	2634.65493646139	2	4	1	0	0	0	0
272.503986154854	2.5186959108114	reward_vlpfc	275.022682065666	53	2	9	10	0	0	0	0	250	250	250	750	2000	0	BLOCKED	0.75	1	7	1	distressed	At this moment	3	1	6	234	VLPFC	390.403397023678	0.374531835205993	n/a	n/a	n/a	n/a	2415.8003992016	0.684089162182936	n/a	n/a	n/a	n/a	2802.63503649635	4	5	1	0	0	0	0
276.007125677228	2.51860070425272	reward_vlpfc	278.525726381481	54	2	9	10	0	0	0	0	250	250	250	750	2000	0	BLOCKED	0.75	-1	1	1	scared	At this moment	4	1	6	234	VLPFC	490.384672999382	0.374531835205993	n/a	n/a	n/a	n/a	2602.01397205589	0.578785549577248	n/a	n/a	n/a	n/a	2946.28832116788	4	6	1	0	0	0	0
279.509750731766	2.5186959108114	reward_vlpfc	282.028446642578	55	2	9	10	0	0	0	0	250	250	250	750	2000	0	BLOCKED	0.75	1	8	1	ashamed	At this moment	5	1	6	234	VLPFC	841.219193279743	0	10857.3132708014	-7.5388125481473	0.00168043567770809	74.7662264064589	2527.98876404494	0.82782475019216	n/a	n/a	n/a	n/a	2534.24553571429	5	7	1	0	0	0	0
283.012528116763	2.51885881972316	reward_vlpfc	285.531386936486	56	2	9	10	0	0	0	0	250	250	250	750	2000	0	BLOCKED	0.75	-1	6	-1	interested	At this moment	5	1	6	234	VLPFC	1190.53781449795	0.508114856429463	n/a	n/a	n/a	n/a	2901.47208121827	0.455034588777863	n/a	n/a	n/a	n/a	2586.19605077574	4	8	1	0	0	0	0
286.532026583135	6.02167287677526	panas_none	292.55369945991	57	5	10	10	n/a	n/a	n/a	n/a	n/a	n/a	n/a	n/a	2000	0	BLOCKED	n/a	n/a	+	0	guilty	At this moment	1	1	6	234	NONE	n/a	0	4285.80124778288	-2.61080856970414	0.00066831515780701	17.7282201374127	1785.52808988764	0.229823212913144	2416.52830906229	0.0765430111139687	-0.000355351715534655	54.1659083339113	2130.73552894212	9	1	0	1	0	1	1
293.537814080119	6.02182979124785	panas_none	299.559643871367	58	5	10	10	n/a	n/a	n/a	n/a	n/a	n/a	n/a	n/a	2000	0	BLOCKED	n/a	n/a	+	0	determined	At this moment	4	1	6	234	NONE	n/a	0.184769038701623	-2913.79219746628	5.29426106776867	-0.00130059782794451	31.4184259417579	2428.84226646248	0.40814757878555	n/a	n/a	n/a	n/a	2507.73636363636	7	2	0	1	0	1	1
300.543492618501	6.02152971452472	panas_none	306.565022333026	59	5	10	10	n/a	n/a	n/a	n/a	n/a	n/a	n/a	n/a	2000	0	BLOCKED	n/a	n/a	+	0	upset	At this moment	3	1	6	234	NONE	n/a	0.17852684144819	-735.461505535634	2.45094078406674	-0.000541051472322972	25.3731479630646	1992.13069908815	0	2377.58165964005	-0.913828859725082	0.000426566329501859	54.6051479201475	1970.13066871637	4	3	0	1	0	1	1
307.549086528957	7.48951124161482	panas_none	315.038597770572	60	5	10	10	n/a	n/a	n/a	n/a	n/a	n/a	n/a	n/a	2000	0	BLOCKED	n/a	n/a	+	0	attentive	At this moment	4	1	6	234	NONE	n/a	0	-2689.52421073267	6.20509875885515	-0.0017328640515344	71.5459520003281	2607.67665418227	0.461183704842429	n/a	n/a	n/a	n/a	2228.95720399429	3	4	0	1	0	1	1
316.022732489884	2.51869802653789	punish_vlpfc	318.541430516422	61	4	11	10	0	0	0	0	250	250	250	750	2000	0	BLOCKED	0.25	1	0	-1	interested	At this moment	3	1	6	234	VLPFC	556.748183369637	0.355805243445693	n/a	n/a	n/a	n/a	2930.1976744186	0.218293620292083	724.138361705088	3.04616711598202	-0.00100337483254111	58.9235612042622	2670.50540806293	2	1	0	0	1	0	0
319.525626591027	2.51866029649977	punish_vlpfc	322.044286887527	62	4	11	10	0	0	0	0	250	250	250	750	2000	0	BLOCKED	0.25	1	4	-1	irritable	At this moment	3	1	6	234	VLPFC	407.464400708675	0.374531835205993	n/a	n/a	n/a	n/a	2785.16566866267	0.425826287471176	n/a	n/a	n/a	n/a	2987.39892904953	3	2	0	0	1	0	0
323.028432890534	2.5186899163723	punish_vlpfc	325.547122806907	63	4	11	10	0	0	0	0	250	250	250	750	2000	0	BLOCKED	0.25	-1	3	1	nervous	At this moment	2	1	6	234	VLPFC	356.362843990326	0.374531835205993	n/a	n/a	n/a	n/a	2509.25349301397	0.403535741737125	n/a	n/a	n/a	n/a	2951.70360824742	3	3	0	0	1	0	0
326.531307950318	2.51867440122368	punish_vlpfc	329.049982351542	64	4	11	10	0	0	0	0	250	250	250	750	2000	0	BLOCKED	0.25	1	0	-1	alert	At this moment	4	1	6	234	VLPFC	339.799382328987	0.374531835205993	n/a	n/a	n/a	n/a	2787.1497005988	0.230591852421214	1043.22836700944	2.63879531354695	-0.000903404012700266	45.6383180579024	2700.94705294705	2	4	0	0	1	0	0
330.034008112371	2.51875479775669	punish_vlpfc	332.552762910128	65	4	11	10	0	0	0	0	250	250	250	750	2000	0	BLOCKED	0.25	-1	0	1	jittery	At this moment	1	1	6	234	VLPFC	507.712254941463	0.374531835205993	n/a	n/a	n/a	n/a	2666.53093812375	0.514988470407379	n/a	n/a	n/a	n/a	3155.51664025357	3	5	0	0	1	0	0
333.553673366308	2.51876185011866	punish_vlpfc	336.072435216427	66	4	11	10	0	0	0	0	250	250	250	750	2000	0	BLOCKED	0.25	-1	6	-1	hostile	At this moment	1	1	6	234	VLPFC	323.06913292408	0.374531835205993	n/a	n/a	n/a	n/a	2613.44510978044	0.230591852421214	2528.79876742674	0.450715284069159	1.8004062355648e-05	40.1427703805609	2996.82717282717	2	6	0	0	1	0	0
337.056463798106	2.51873505127429	punish_vlpfc	339.57519884938	67	4	11	10	0	0	0	0	250	250	250	750	2000	0	BLOCKED	0.25	1	4	-1	strong	At this moment	2	1	6	234	VLPFC	323.02752417326	0.499375780274657	n/a	n/a	n/a	n/a	2785.75311720698	0.22598001537279	804.624250922023	3.52781377775853	-0.00139330981715877	35.2382645249516	2814.39821251241	2	7	0	0	1	0	0
340.559246472418	2.51881121635438	punish_vlpfc	343.078057688773	68	4	11	10	0	0	0	0	250	250	250	750	2000	0	BLOCKED	0.25	1	4	-1	interested	At this moment	3	1	6	234	VLPFC	974.185993254185	0	359.268017915678	2.80937990001858	-0.000726864629056287	60.9621375181208	3015.62546816479	0.410453497309762	n/a	n/a	n/a	n/a	2795.32333767927	2	8	0	0	1	0	0
344.078807704389	6.02159917998318	panas_none	350.100406884372	69	5	12	10	n/a	n/a	n/a	n/a	n/a	n/a	n/a	n/a	2000	0	BLOCKED	n/a	n/a	+	0	ashamed	At this moment	3	1	6	234	NONE	n/a	0	-1296.0430449216	2.83926975712977	-0.000609200679964708	27.6810470634753	1947	0.037663335895465	1943.79870022853	1.30480670906022	-0.000987763124734262	48.6834362892513	2200.66773162939	5	1	0	1	0	0	1
351.084536314428	6.02151843076945	panas_none	357.106054745197	70	5	12	10	n/a	n/a	n/a	n/a	n/a	n/a	n/a	n/a	2000	0	BLOCKED	n/a	n/a	+	0	distressed	At this moment	3	1	6	234	NONE	n/a	0.415730337078652	n/a	n/a	n/a	n/a	2044.05341880342	0.229823212913144	2394.26875125953	-0.0621755931231664	-0.000125554356385322	41.047605748418	2190.88622754491	4	2	0	1	0	0	1
358.090204979599	6.02156427091359	panas_none	364.111769250512	71	5	12	10	n/a	n/a	n/a	n/a	n/a	n/a	n/a	n/a	2000	0	BLOCKED	n/a	n/a	+	0	strong	At this moment	3	1	6	234	NONE	n/a	0	1466.51226039843	0.640456459648998	-0.000237611417782595	25.769737115644	1752.02247191011	0.229823212913144	1425.33299180662	0.305778029808351	-8.09492250467046e-05	37.7945355066623	1626.39820359281	6	3	0	1	0	0	1
365.095818283975	14.3951506748796	panas_none	379.490968958855	72	5	12	10	n/a	n/a	n/a	n/a	n/a	n/a	n/a	n/a	2000	0	BLOCKED	n/a	n/a	+	0	interested	At this moment	2	1	6	234	NONE	n/a	0	10188.4600171165	-7.36526246492075	0.00163923117200913	22.3810848354816	2038.14606741573	0.249807840122982	1582.78771536649	1.88082478051329	-0.000939549001894553	53.4130621685035	2268.04918032787	6	4	0	1	0	0	1
380.475079700172	2.51869414776564	reward_rtpj	382.993773847938	73	1	13	10	750	250	250	250	0	0	0	0	2000	0	BLOCKED	0.75	1	6	1	upset	At this moment	4	1	6	234	RTPJ	1107.38269948959	0.374531835205993	n/a	n/a	n/a	n/a	2612.1876247505	0.691775557263643	n/a	n/a	n/a	n/a	2224.79052369077	4	1	1	0	0	0	0
383.977907156765	2.51872270965578	reward_rtpj	386.496629866421	74	1	13	10	750	250	250	250	0	0	0	0	2000	0	BLOCKED	0.75	1	6	1	nervous	At this moment	2	1	6	234	RTPJ	306.679158687592	0.354556803995006	n/a	n/a	n/a	n/a	2492.53578336557	0.230591852421214	1779.88932482317	1.45089657377615	-0.000388186433661412	53.3824540872538	2790.33966033966	2	2	1	0	0	0	0
387.480663032174	2.5187417509556	reward_rtpj	389.99940478313	75	1	13	10	750	250	250	250	0	0	0	0	2000	0	BLOCKED	0.75	1	2	-1	proud	At this moment	3	1	6	234	RTPJ	340.212296366692	0.375780274656679	n/a	n/a	n/a	n/a	2697.066	0.23674096848578	911.796928762388	2.90900099810023	-0.00099532156185603	32.9979337373868	2741.18831822759	2	3	1	0	0	0	0
390.983705937445	2.51855274850129	reward_rtpj	393.502258685946	76	1	13	10	750	250	250	250	0	0	0	0	2000	0	BLOCKED	0.75	1	10	1	excited	At this moment	1	1	6	234	RTPJ	407.567012190819	0.374531835205993	n/a	n/a	n/a	n/a	2632.3253493014	0.273635664873174	n/a	n/a	n/a	n/a	2939.09206349206	2	4	1	0	0	0	0
394.486426903844	2.51870155268904	reward_rtpj	397.005128456533	77	1	13	10	750	250	250	250	0	0	0	0	2000	0	BLOCKED	0.75	-1	2	1	scared	At this moment	2	1	6	234	RTPJ	389.973204612732	0.347066167290886	n/a	n/a	n/a	n/a	2599.76673040153	0.230591852421214	2106.82511058001	1.39541095359595	-0.00051455662918736	61.3719962788821	2878.54445554446	2	5	1	0	0	0	0
397.989169732392	2.51872024136782	reward_rtpj	400.50788997376	78	1	13	10	750	250	250	250	0	0	0	0	2000	0	BLOCKED	0.75	-1	1	1	alert	At this moment	1	1	6	234	RTPJ	373.320883631706	0.408239700374532	n/a	n/a	n/a	n/a	2611.85864978903	0.231360491929285	573.455997752881	3.88177427303176	-0.00151611380392794	37.773974290404	2811.094	2	6	1	0	0	0	0
401.508734138012	2.51923506164547	reward_rtpj	404.027969199657	79	1	13	10	750	250	250	250	0	0	0	0	2000	0	BLOCKED	0.75	-1	9	-1	jittery	At this moment	3	1	6	234	RTPJ	373.820188820362	0.395755305867665	n/a	n/a	n/a	n/a	2660.43388429752	0.260568793235972	n/a	n/a	n/a	n/a	2819.67047817048	2	7	1	0	0	0	0
405.028335215747	2.5186962634325	reward_rtpj	407.54703147918	80	1	13	10	750	250	250	250	0	0	0	0	2000	0	BLOCKED	0.75	1	9	1	strong	At this moment	5	1	6	234	RTPJ	406.57369107008	0.410736579275905	n/a	n/a	n/a	n/a	2472.87923728814	0.209069946195234	1494.13566712643	2.24381387582587	-0.000874400100623864	47.1439370790525	2771.84548104956	2	8	1	0	0	0	0
408.547854486406	6.0215029156804	panas_none	414.569357402086	81	5	14	10	n/a	n/a	n/a	n/a	n/a	n/a	n/a	n/a	2000	0	BLOCKED	n/a	n/a	+	0	guilty	At this moment	2	1	6	234	NONE	n/a	0	-6345.68408044828	8.15299689509881	-0.00191853056782227	47.0386007074817	2214.35330836454	0.22598001537279	801.535800343092	4.80262126313553	-0.00284451036613187	48.1137036268477	2582.8093346574	6	1	0	1	0	1	0
415.553632815361	6.02146976965668	panas_none	421.575102585018	82	5	14	10	n/a	n/a	n/a	n/a	n/a	n/a	n/a	n/a	2000	0	BLOCKED	n/a	n/a	+	0	afraid	At this moment	2	1	6	234	NONE	n/a	0.373283395755306	n/a	n/a	n/a	n/a	2081.1374501992	0.229823212913144	1711.95079560764	-0.407977821106288	0.000558914839929494	51.8785171984541	1880.60079840319	4	2	0	1	0	1	0
422.559149502814	6.02165630382302	panas_none	428.580805806637	83	5	14	10	n/a	n/a	n/a	n/a	n/a	n/a	n/a	n/a	2000	0	BLOCKED	n/a	n/a	+	0	ashamed	At this moment	3	1	6	234	NONE	n/a	0	663.495334304411	0.902821508932035	-0.000197226254331263	18.4928975193774	1678.94257178527	0.468101460415065	n/a	n/a	n/a	n/a	1598.51300578035	7	3	0	1	0	1	0
429.564910553515	9.54117522192001	panas_none	439.106085775435	84	5	14	10	n/a	n/a	n/a	n/a	n/a	n/a	n/a	n/a	2000	0	BLOCKED	n/a	n/a	+	0	scared	At this moment	5	1	6	234	NONE	n/a	0	1451.81763458836	0.77511518561751	-0.000237511853697464	24.621016152004	2019.92509363296	0	1859.17300826763	0.577536740793986	-0.000273789963066798	32.9523034593984	2114.88086087625	6	4	0	1	0	1	0
440.106799824119	2.51871742045876	reward_vlpfc	442.625517244577	85	2	15	10	0	0	0	0	250	250	250	750	2000	0	BLOCKED	0.75	-1	2	1	enthusiastic	At this moment	2	1	6	234	VLPFC	389.843089163303	0.31585518102372	n/a	n/a	n/a	n/a	2472.70620437956	0.230591852421214	1471.33430265048	1.52061457234243	-0.000297098891302835	35.5923639220907	2632.48651348651	2	1	1	0	0	0	0
443.609856834114	2.51849209845068	reward_vlpfc	446.128348932564	86	2	15	10	0	0	0	0	250	250	250	750	2000	0	BLOCKED	0.75	-1	0	1	nervous	At this moment	3	1	6	234	VLPFC	590.724560201168	0.35330836454432	n/a	n/a	n/a	n/a	2356.81081081081	0	1664.83976626435	0.295755270665475	0.000233375823824523	53.5037853281158	2118.95541890853	1	2	1	0	0	0	0
447.112439927399	2.51874210357664	reward_vlpfc	449.631182030976	87	2	15	10	0	0	0	0	250	250	250	750	2000	0	BLOCKED	0.75	-1	3	1	afraid	At this moment	1	1	6	234	VLPFC	423.452744603157	0.374531835205993	n/a	n/a	n/a	n/a	2328.79041916168	0.432744043043812	n/a	n/a	n/a	n/a	2585.77506775068	3	3	1	0	0	0	0
450.632054051936	2.51865324419737	reward_vlpfc	453.150707296133	88	2	15	10	0	0	0	0	250	250	250	750	2000	0	BLOCKED	0.75	1	4	-1	upset	At this moment	2	1	6	234	VLPFC	340.238037407398	0.374531835205993	n/a	n/a	n/a	n/a	2885.79640718563	0.230591852421214	1869.87141663292	1.09949617475696	-0.000243764804702847	44.6407842685831	2675.45554445554	2	4	1	0	0	0	0
454.134805695951	2.51876749193667	reward_vlpfc	456.653573187888	89	2	15	10	0	0	0	0	250	250	250	750	2000	0	BLOCKED	0.75	1	3	-1	guilty	At this moment	4	1	6	234	VLPFC	356.467571020126	0.374531835205993	n/a	n/a	n/a	n/a	2637.750499002	0.230591852421214	1634.32653785116	1.51686335989559	-0.000531501093252088	75.6134795534914	2505.90609390609	2	5	1	0	0	0	0
457.637606001019	2.51879041206837	reward_vlpfc	460.156396413088	90	2	15	10	0	0	0	0	250	250	250	750	2000	0	BLOCKED	0.75	1	8	1	scared	At this moment	3	1	6	234	VLPFC	306.620624303818	0.384519350811486	n/a	n/a	n/a	n/a	2561.00811359026	0.224442736356649	1701.47418165976	2.02602273431686	-0.000763001439299616	39.310027651963	2883.28344895937	2	6	1	0	0	0	0
461.157261029065	2.51870437365767	reward_vlpfc	463.675965402722	91	2	15	10	0	0	0	0	250	250	250	750	2000	0	BLOCKED	0.75	-1	3	1	strong	At this moment	1	1	6	234	VLPFC	724.596527218819	0	16873.0540151903	-12.6852494735995	0.00276321616931768	41.4743249723927	2566.32709113608	0.445810914681015	n/a	n/a	n/a	n/a	2756.65742024965	2	7	1	0	0	0	0
464.660069091737	2.51869520556926	reward_vlpfc	467.178764297307	92	2	15	10	0	0	0	0	250	250	250	750	2000	0	BLOCKED	0.75	-1	1	1	distressed	At this moment	4	1	6	234	VLPFC	523.194241344929	0.374531835205993	n/a	n/a	n/a	n/a	2485.07784431138	0.208301306687164	673.178475439723	4.36293392092566	-0.0020678452057731	37.4122208753392	2784.40485436893	2	8	1	0	0	0	0
468.179678632259	6.02144226551059	panas_none	474.20112089777	93	5	16	10	n/a	n/a	n/a	n/a	n/a	n/a	n/a	n/a	2000	0	BLOCKED	n/a	n/a	+	0	afraid	At this moment	2	1	6	234	NONE	n/a	0	1778.40580062223	-0.250634865966728	0.000138557684455972	28.9554923444921	1869.52808988764	0.229823212913144	2171.36044104406	-0.315855005637903	0.000182901356824618	24.5804259382556	2047.61177644711	5	1	0	1	0	1	1
475.185264079928	6.02156673920155	panas_none	481.20683081913	94	5	16	10	n/a	n/a	n/a	n/a	n/a	n/a	n/a	n/a	2000	0	BLOCKED	n/a	n/a	+	0	nervous	At this moment	3	1	6	234	NONE	n/a	0	3505.1508834342	-1.62868725526335	0.000393418162702351	26.7419765171907	1840.69538077403	0.19369715603382	1828.00944012168	-0.409059019811343	0.000309697553661681	19.9340927286889	1722.41086749285	5	2	0	1	0	1	1
482.191125273764	6.02137985247373	panas_none	488.212505126238	95	5	16	10	n/a	n/a	n/a	n/a	n/a	n/a	n/a	n/a	2000	0	BLOCKED	n/a	n/a	+	0	excited	At this moment	4	1	6	234	NONE	n/a	0	3343.22872114629	-1.54805812955888	0.00038553195229219	16.3074758716214	1813.11610486891	0.229823212913144	1746.01857531763	-0.393658337335755	0.000299481343959924	28.9888893703918	1672.87125748503	5	3	0	1	0	1	1
489.21326325196	6.63877845138313	panas_none	495.852041703343	96	5	16	10	n/a	n/a	n/a	n/a	n/a	n/a	n/a	n/a	2000	0	BLOCKED	n/a	n/a	+	0	ashamed	At this moment	2	1	6	234	NONE	n/a	0	4323.33946094084	-2.0356710491599	0.000532663296706954	26.3377936977631	2426.5493133583	0.230591852421214	1901.92284384212	0.29197998342206	-9.35090619640515e-05	46.8507634824441	2044.31568431568	4	4	0	1	0	1	1
