onset	duration	trial_type	offset	trial	block	blockCntr	frequency	amplitude_1	amplitude_2	amplitude_3	amplitude_4	amplitude_5	amplitude_6	amplitude_7	amplitude_8	transition	sham	mode	rewardFraction	guess	outcome	correct	word	when	answer	runNr	scanNr	subjectNr	target	reactionTime	outcomeEyeClosed	outcomeParms_1	outcomeParms_2	outcomeParms_3	outcomeSigma	outcomePupilArea	guessEyeClosed	guessParms_1	guessParms_2	guessParms_3	guessSigma	guessPupilArea	nrBlinks	trialInBlock	isReward	isPanas	isPunish	beforePanasReward	beforePanasVLPFC
20.4076392985582	2.50963084214926	reward_rtpj	22.9172701407075	1	1	1	10	750	250	250	250	0	0	0	0	2000	0	BLOCKED	0.75	1	9	1	strong	At this moment	3	3	12	234	RTPJ	950.063488602638	0.420724094881398	n/a	n/a	n/a	n/a	2710.37931034483	0.315142198308993	n/a	n/a	n/a	n/a	3063.37037037037	4	1	1	0	0	0	0
23.918108310461	2.51864160782099	reward_rtpj	26.436749918282	2	1	1	10	750	250	250	250	0	0	0	0	2000	0	BLOCKED	0.75	-1	7	-1	hostile	At this moment	3	3	12	234	RTPJ	373.377302229404	1	n/a	n/a	n/a	n/a	n/a	0.345119139123751	n/a	n/a	n/a	n/a	3327.88615023474	7	2	1	0	0	0	0
27.4208204613924	2.51871177852154	reward_rtpj	29.9395322399139	3	1	1	10	750	250	250	250	0	0	0	0	2000	0	BLOCKED	0.75	1	1	-1	jittery	At this moment	1	3	12	234	RTPJ	257.640056669712	0.31960049937578	n/a	n/a	n/a	n/a	2954.91743119266	0.196771714066103	3595.97837824532	-1.11840356761415	0.000563243049312666	54.7382121284343	3095.92535885167	2	3	1	0	0	0	0
30.9241542754173	2.51826959729195	reward_rtpj	33.4424238727093	4	1	1	10	750	250	250	250	0	0	0	0	2000	0	BLOCKED	0.75	1	9	1	nervous	At this moment	1	3	12	234	RTPJ	272.942561268806	0.374531835205993	n/a	n/a	n/a	n/a	2586.27345309381	0.195234435049962	3502.50799800425	-1.205285234723	0.000735602214720684	80.3465305842047	3085.8223495702	2	4	1	0	0	0	0
34.4432419433594	2.51884577286243	reward_rtpj	36.9620877162218	5	1	1	10	750	250	250	250	0	0	0	0	2000	0	BLOCKED	0.75	-1	0	1	attentive	At this moment	3	3	12	234	RTPJ	306.567731797695	0.556803995006242	n/a	n/a	n/a	n/a	2553.92112676056	0.230591852421214	2303.3735228173	2.40165888820028	-0.00146490958163547	128.854674529187	3100.35164835165	2	5	1	0	0	0	0
37.9628052910566	2.51871107333898	reward_rtpj	40.4815163643956	6	1	1	10	750	250	250	250	0	0	0	0	2000	0	BLOCKED	0.75	1	8	1	hostile	At this moment	5	3	12	234	RTPJ	439.714013814926	0.367041198501873	n/a	n/a	n/a	n/a	2710.51282051282	0.415833973866257	n/a	n/a	n/a	n/a	3161.41052631579	3	6	1	0	0	0	0
41.4655297836065	2.5188672824502	reward_rtpj	43.9843970660567	7	1	1	10	750	250	250	250	0	0	0	0	2000	0	BLOCKED	0.75	1	10	1	proud	At this moment	5	3	12	234	RTPJ	290.67177349329	0.374531835205993	n/a	n/a	n/a	n/a	2875.30538922156	0.230591852421214	2815.7824908171	0.423449293804627	0.000119737174120425	71.5162870470953	3305.08491508491	2	7	1	0	0	0	0
44.9684665513039	2.51869767391682	reward_rtpj	47.4871642252207	8	1	1	10	750	250	250	250	0	0	0	0	2000	0	BLOCKED	0.75	-1	0	1	alert	At this moment	4	3	12	234	RTPJ	690.371555685997	0.374531835205993	n/a	n/a	n/a	n/a	2984.17764471058	0	2280.21307202387	1.02893686777414	-0.000106842643914646	49.6487935408029	3005.35434281322	1	8	1	0	0	0	0
48.5155043775439	6.01083414644003	panas_none	54.526338523984	9	5	2	10	n/a	n/a	n/a	n/a	n/a	n/a	n/a	n/a	2000	0	BLOCKED	n/a	n/a	+	0	strong	At this moment	4	3	12	234	NONE	n/a	0	1261.00957575615	0.752702762226948	-0.000117608271418757	28.1997057267319	2316.85143570537	0.229823212913144	1757.12797593323	2.38411364755449	-0.00150515511050121	160.992232228989	2508.84431137725	3	1	0	1	0	1	0
55.5103893204927	6.02156885492802	panas_none	61.5319581754208	10	5	2	10	n/a	n/a	n/a	n/a	n/a	n/a	n/a	n/a	2000	0	BLOCKED	n/a	n/a	+	0	inspired	At this moment	3	3	12	234	NONE	n/a	0.373283395755306	n/a	n/a	n/a	n/a	1945.37848605578	0	2375.43393768358	-0.719291983715424	0.000115530527967785	34.9953832036081	1861.8854727133	4	2	0	1	0	1	0
62.5326464831233	6.02170108616352	panas_none	68.5543475692868	11	5	2	10	n/a	n/a	n/a	n/a	n/a	n/a	n/a	n/a	2000	0	BLOCKED	n/a	n/a	+	0	hostile	At this moment	2	3	12	234	NONE	n/a	0.373283395755306	n/a	n/a	n/a	n/a	1911.32868525896	0.229823212913144	2446.46302237931	-0.224834200344661	3.04198118741749e-06	50.3770505100629	2247.37425149701	5	3	0	1	0	1	0
69.5550975848436	10.7922001903653	panas_none	80.3472977752089	12	5	2	10	n/a	n/a	n/a	n/a	n/a	n/a	n/a	n/a	2000	0	BLOCKED	n/a	n/a	+	0	determined	At this moment	2	3	12	234	NONE	n/a	0.595505617977528	n/a	n/a	n/a	n/a	3467.10802469136	0.58109146810146	n/a	n/a	n/a	n/a	2579.58532110092	7	4	0	1	0	1	0
81.3479917247891	2.51872376751901	reward_rtpj	83.8667154923081	13	1	3	10	750	250	250	250	0	0	0	0	2000	0	BLOCKED	0.75	-1	3	1	attentive	At this moment	4	3	12	234	RTPJ	339.481674671173	0.3270911360799	n/a	n/a	n/a	n/a	2840.25417439703	0.230591852421214	1578.56354132213	1.41277369363233	-9.74122547471318e-05	29.0639857967166	2800.72727272727	2	1	1	0	0	0	0
84.8508526799679	2.51859576767683	reward_rtpj	87.3694484476447	14	1	3	10	750	250	250	250	0	0	0	0	2000	0	BLOCKED	0.75	1	10	1	excited	At this moment	2	3	12	234	RTPJ	373.410448253155	0.35330836454432	n/a	n/a	n/a	n/a	2440.50193050193	0	2074.6354615044	1.03990023280322	-0.000288811308273946	37.0093773581584	2707.99769408148	1	2	1	0	0	0	0
88.3537467810512	2.51866770148277	reward_rtpj	90.8724144825339	15	1	3	10	750	250	250	250	0	0	0	0	2000	0	BLOCKED	0.75	1	6	1	distressed	At this moment	5	3	12	234	RTPJ	523.782758533955	0.374531835205993	n/a	n/a	n/a	n/a	2531.51896207585	0	2812.62243313157	0.0446537578543684	-0.000211442280777901	91.4530956302458	2668.32129131437	1	3	1	0	0	0	0
91.8566158463359	2.51867792737484	reward_rtpj	94.3752937737107	16	1	3	10	750	250	250	250	0	0	0	0	2000	0	BLOCKED	0.75	-1	10	-1	hostile	At this moment	5	3	12	234	RTPJ	339.745079338551	0.421972534332085	n/a	n/a	n/a	n/a	3043.90280777538	0.230591852421214	2764.34348925307	0.106766880915004	0.000180713561160871	44.241153293232	3060.99400599401	2	4	1	0	0	0	0
95.3592952039838	2.51880028533937	reward_rtpj	97.8780954893231	17	1	3	10	750	250	250	250	0	0	0	0	2000	0	BLOCKED	0.75	-1	8	-1	inspired	At this moment	2	3	12	234	RTPJ	390.099793970585	0.374531835205993	n/a	n/a	n/a	n/a	2621.58882235529	0	2208.20082231076	0.692180734854426	-0.000242429098412728	59.8389803888065	2588.20445810915	1	5	1	0	0	0	0
98.8787922598124	2.51890994912385	reward_rtpj	101.397702208936	18	1	3	10	750	250	250	250	0	0	0	0	2000	0	BLOCKED	0.75	1	6	1	interested	At this moment	5	3	12	234	RTPJ	274.311066389084	0.374531835205993	n/a	n/a	n/a	n/a	2474.04391217565	0	1811.82409028836	0.770882175343803	-3.65757131636277e-05	45.6048063707674	2451.4096848578	1	6	1	0	0	0	0
102.381721269965	2.51872165179253	reward_rtpj	104.900442921758	19	1	3	10	750	250	250	250	0	0	0	0	2000	0	BLOCKED	0.75	-1	0	1	guilty	At this moment	5	3	12	234	RTPJ	439.53594237566	0.374531835205993	n/a	n/a	n/a	n/a	2296.09181636727	0	2546.45343135608	0.216903150665705	-0.000189397803114612	50.5978023219388	2569.03151421983	1	7	1	0	0	0	0
105.884595624566	2.5186962633729	reward_rtpj	108.403291887939	20	1	3	10	750	250	250	250	0	0	0	0	2000	0	BLOCKED	0.75	-1	0	1	active	At this moment	2	3	12	234	RTPJ	356.464750111103	0.347066167290886	n/a	n/a	n/a	n/a	2673.4913957935	0	1654.45895999648	1.45604471471359	-0.000260229394723752	53.4633851897482	2664.93389700231	1	8	1	0	0	0	0
109.404010873318	6.02168451315164	panas_none	115.425695386469	21	5	4	10	n/a	n/a	n/a	n/a	n/a	n/a	n/a	n/a	2000	0	BLOCKED	n/a	n/a	+	0	nervous	At this moment	3	3	12	234	NONE	n/a	0	-3265.28043801301	5.02962552173908	-0.00117060755466422	29.6816826957837	2072.00998751561	0.229823212913144	2494.50473373612	-0.401626908510515	-9.76171957192867e-05	88.9500163337312	2147.31337325349	4	1	0	1	0	1	0
116.426600906014	6.02148316907882	panas_none	122.448084075093	22	5	4	10	n/a	n/a	n/a	n/a	n/a	n/a	n/a	n/a	2000	0	BLOCKED	n/a	n/a	+	0	hostile	At this moment	2	3	12	234	NONE	n/a	0.0224719101123595	-2404.8616602057	4.41311414580781	-0.00103965229453627	34.2369508970152	2221.2030651341	0.292851652574942	n/a	n/a	n/a	n/a	1937.46304347826	5	2	0	1	0	1	0
123.432180359185	6.0215773177147	panas_none	129.453757676899	23	5	4	10	n/a	n/a	n/a	n/a	n/a	n/a	n/a	n/a	2000	0	BLOCKED	n/a	n/a	+	0	interested	At this moment	5	3	12	234	NONE	n/a	0	-886.575326549955	2.39890688911523	-0.000508136153917939	24.4507020528808	1884.06491885144	0	1787.80465195035	-0.557024820803602	0.000415991583358806	28.1707060369319	1675.24365872406	4	3	0	1	0	1	0
130.43797455591	14.4782204566002	panas_none	144.91619501251	24	5	4	10	n/a	n/a	n/a	n/a	n/a	n/a	n/a	n/a	2000	0	BLOCKED	n/a	n/a	+	0	proud	At this moment	4	3	12	234	NONE	n/a	0.369538077403246	n/a	n/a	n/a	n/a	3238.32475247525	0.461183704842429	n/a	n/a	n/a	n/a	2628.26533523538	16	4	0	1	0	1	0
145.900950689733	2.51820048445461	punish_vlpfc	148.419151174188	25	4	5	10	0	0	0	0	250	250	250	750	2000	0	BLOCKED	0.25	-1	4	1	enthusiastic	At this moment	4	3	12	234	VLPFC	273.248279869556	0.333333333333333	n/a	n/a	n/a	n/a	2872.37078651685	0.230591852421214	947.544200928822	2.84620923591295	-0.000715311189961508	33.9996784095225	3016.54445554446	2	1	0	0	1	0	0
149.403357122004	2.51861234068872	punish_vlpfc	151.921969462693	26	4	5	10	0	0	0	0	250	250	250	750	2000	0	BLOCKED	0.25	-1	9	-1	afraid	At this moment	1	3	12	234	VLPFC	273.563166558743	0.374531835205993	n/a	n/a	n/a	n/a	2662.42315369261	0	2625.3637627476	-0.245016612031841	0.000253517032549539	81.0094605737668	2638.45657186779	1	2	0	0	1	0	0
152.906034011304	2.51877701264621	punish_vlpfc	155.424811023951	27	4	5	10	0	0	0	0	250	250	250	750	2000	0	BLOCKED	0.25	1	4	-1	distressed	At this moment	1	3	12	234	VLPFC	289.961956143379	0.369538077403246	n/a	n/a	n/a	n/a	2584.07722772277	0	2581.53529506263	0.479585260988742	-0.000243991632683473	77.6760081331381	2778.86933128363	1	3	0	0	1	0	0
156.408971836865	2.51893992149832	punish_vlpfc	158.927911758363	28	4	5	10	0	0	0	0	250	250	250	750	2000	0	BLOCKED	0.25	-1	10	-1	hostile	At this moment	4	3	12	234	VLPFC	306.917174875736	0.377028714107366	n/a	n/a	n/a	n/a	2757.56913827655	0.189853958493467	1870.40301799645	2.50749535407585	-0.00105568549960817	41.7336163225391	3213.47912713472	2	4	0	0	1	0	0
159.928609234154	2.51856332689522	punish_vlpfc	162.447172561049	29	4	5	10	0	0	0	0	250	250	250	750	2000	0	BLOCKED	0.25	-1	6	-1	alert	At this moment	5	3	12	234	VLPFC	807.460733413696	0.443196004993758	n/a	n/a	n/a	n/a	2806.46860986547	0.514219830899308	n/a	n/a	n/a	n/a	3192.99050632911	3	5	0	0	1	0	0
163.448002620637	2.51869414776561	punish_vlpfc	165.966696768403	30	4	5	10	0	0	0	0	250	250	250	750	2000	0	BLOCKED	0.25	1	1	-1	excited	At this moment	3	3	12	234	VLPFC	272.870627462864	0.772784019975031	n/a	n/a	n/a	n/a	3081.17582417582	0.209838585703305	2107.94909004385	1.66448641435461	-0.000588521327535761	45.975197072843	3115.39591439689	7	6	0	0	1	0	0
166.96750108695	2.51882179498671	punish_vlpfc	169.486322881937	31	4	5	10	0	0	0	0	250	250	250	750	2000	0	BLOCKED	0.25	1	1	-1	attentive	At this moment	4	3	12	234	VLPFC	658.165314435959	0.434456928838951	n/a	n/a	n/a	n/a	2962.40397350993	0.209838585703305	1024.2349244282	4.55402207156738	-0.00210306836192899	68.001140078952	3284.90175097276	2	7	0	0	1	0	0
170.470374736249	2.51879816967249	punish_vlpfc	172.989172905922	32	4	5	10	0	0	0	0	250	250	250	750	2000	0	BLOCKED	0.25	-1	1	1	scared	At this moment	4	3	12	234	VLPFC	456.401596546173	0.415730337078652	n/a	n/a	n/a	n/a	2676.91239316239	0.203689469638739	709.348908513519	3.9240289505914	-0.001467044926648	41.8316555312476	3016.5666023166	2	8	0	0	1	0	0
173.98989153868	6.02188374155762	panas_none	180.011775280237	33	5	6	10	n/a	n/a	n/a	n/a	n/a	n/a	n/a	n/a	2000	0	BLOCKED	n/a	n/a	+	0	afraid	At this moment	3	3	12	234	NONE	n/a	0.373283395755306	n/a	n/a	n/a	n/a	2096.94621513944	0	1974.0795002662	1.47942659417466	-0.00097598861634707	112.86195988081	2397.96617986164	5	1	0	1	0	0	1
181.012284811258	6.02155757117271	panas_none	187.033842382431	34	5	6	10	n/a	n/a	n/a	n/a	n/a	n/a	n/a	n/a	2000	0	BLOCKED	n/a	n/a	+	0	upset	At this moment	3	3	12	234	NONE	n/a	0.194756554307116	-2435.60736872652	3.96940674891219	-0.000815571538120676	32.5025701512389	2274.18604651163	0.0184473481936972	2418.773550117	0.302237291597613	-0.000315393592421287	39.2814773234711	2408.38449490995	5	2	0	1	0	0	1
188.034820541084	6.02146518558266	panas_none	194.056285726666	35	5	6	10	n/a	n/a	n/a	n/a	n/a	n/a	n/a	n/a	2000	0	BLOCKED	n/a	n/a	+	0	inspired	At this moment	4	3	12	234	NONE	n/a	0.506866416978777	n/a	n/a	n/a	n/a	1934.68101265823	0.137586471944658	1685.23755660804	-0.447350215765017	0.000399777045452449	27.2650509019243	1618.41889483066	11	3	0	1	0	0	1
195.040319244981	12.1765798371434	panas_none	207.216899082124	36	5	6	10	n/a	n/a	n/a	n/a	n/a	n/a	n/a	n/a	2000	0	BLOCKED	n/a	n/a	+	0	guilty	At this moment	2	3	12	234	NONE	n/a	0.455680399500624	n/a	n/a	n/a	n/a	3551.96788990826	0.607225211375865	n/a	n/a	n/a	n/a	3259.76320939335	10	4	0	1	0	0	1
208.201000302851	2.51877137082815	punish_vlpfc	210.719771673679	37	4	7	10	0	0	0	0	250	250	250	750	2000	0	BLOCKED	0.25	1	10	1	active	At this moment	4	3	12	234	VLPFC	273.623463988304	0.343320848938826	n/a	n/a	n/a	n/a	2677.68631178707	0.208301306687164	1064.14816696628	2.89891857764305	-0.000999259457553214	28.5487503517896	2861.83689320388	2	1	0	0	1	0	0
211.72044975543	2.51878829640151	punish_vlpfc	214.239238051832	38	4	7	10	0	0	0	0	250	250	250	750	2000	0	BLOCKED	0.25	-1	6	-1	interested	At this moment	1	3	12	234	VLPFC	356.943956196308	0.394506866416979	n/a	n/a	n/a	n/a	2988.76701030928	0.232897770945427	2630.31002036835	1.1098597593402	-0.000460452946807262	69.2968715448703	3218.61523046092	2	2	0	0	1	0	0
215.223422842681	2.51868603760005	punish_vlpfc	217.742108880281	39	4	7	10	0	0	0	0	250	250	250	750	2000	0	BLOCKED	0.25	1	3	-1	scared	At this moment	1	3	12	234	VLPFC	289.841713905334	0.360799001248439	n/a	n/a	n/a	n/a	2917.337890625	0.24750192159877	813.787361578745	3.19689315397865	-0.00114308284688222	36.0557583213686	2795.90909090909	2	3	0	0	1	0	0
218.726220326841	2.51873716700075	punish_vlpfc	221.244957493842	40	4	7	10	0	0	0	0	250	250	250	750	2000	0	BLOCKED	0.25	-1	7	-1	jittery	At this moment	3	3	12	234	VLPFC	323.6174518466	1	n/a	n/a	n/a	n/a	n/a	0.253651037663336	n/a	n/a	n/a	n/a	3168.73738414006	3	4	0	0	1	0	0
222.228975144386	2.51873751962185	punish_vlpfc	224.747712664008	41	4	7	10	0	0	0	0	250	250	250	750	2000	0	BLOCKED	0.25	1	6	1	guilty	At this moment	4	3	12	234	VLPFC	306.701373577118	0.782771535580524	n/a	n/a	n/a	n/a	2842.18965517241	0	2905.58659033101	-0.00212445625252298	0.000433797531147874	86.9147749277589	3277.52728670254	2	5	0	0	1	0	0
225.73221304673	2.51844308471681	punish_vlpfc	228.250656131446	42	4	7	10	0	0	0	0	250	250	250	750	2000	0	BLOCKED	0.25	1	0	-1	attentive	At this moment	4	3	12	234	VLPFC	439.339182317257	0.398252184769039	n/a	n/a	n/a	n/a	2804.22199170124	0.38662567255957	n/a	n/a	n/a	n/a	3188.71553884712	2	6	0	0	1	0	0
229.251435414195	2.5186899163127	punish_vlpfc	231.770125330508	43	4	7	10	0	0	0	0	250	250	250	750	2000	0	BLOCKED	0.25	-1	10	-1	enthusiastic	At this moment	5	3	12	234	VLPFC	290.706682562828	1	n/a	n/a	n/a	n/a	n/a	0.220599538816295	1554.79816935533	3.00764124053408	-0.00124831969259881	63.569749737882	3203.48915187377	2	7	0	0	1	0	0
232.754145096838	2.5188045166731	punish_vlpfc	235.272949613512	44	4	7	10	0	0	0	0	250	250	250	750	2000	0	BLOCKED	0.25	-1	6	-1	jittery	At this moment	3	3	12	234	VLPFC	323.371677994728	1	n/a	n/a	n/a	n/a	n/a	1	n/a	n/a	n/a	n/a	n/a	2	8	0	0	1	0	0
236.273777204812	6.02155298715829	panas_none	242.29533019197	45	5	8	10	n/a	n/a	n/a	n/a	n/a	n/a	n/a	n/a	2000	0	BLOCKED	n/a	n/a	+	0	scared	At this moment	3	3	12	234	NONE	n/a	0.374531835205993	n/a	n/a	n/a	n/a	2064.83233532934	0.229823212913144	2272.36275424851	1.81410577606372	-0.0013793328385542	54.926066009349	2731.2874251497	6	1	0	1	0	0	1
243.296187403023	6.0216108162999	panas_none	249.317798219323	46	5	8	10	n/a	n/a	n/a	n/a	n/a	n/a	n/a	n/a	2000	0	BLOCKED	n/a	n/a	+	0	strong	At this moment	3	3	12	234	NONE	n/a	0	5507.51114928848	-2.68965932888867	0.000595893865594188	37.6509567080537	2516.77028714107	0.229823212913144	2752.48441555629	-0.00425126425953871	-0.000110395645028448	44.914631901951	2631.6497005988	4	2	0	1	0	0	1
250.318568686724	6.0215621551871	panas_none	256.340130841911	47	5	8	10	n/a	n/a	n/a	n/a	n/a	n/a	n/a	n/a	2000	0	BLOCKED	n/a	n/a	+	0	alert	At this moment	4	3	12	234	NONE	n/a	0.143570536828964	3613.02331523569	-1.57883746914142	0.000416911980867527	32.8630969311024	2144.69096209913	0.272098385857033	n/a	n/a	n/a	n/a	2219.06758183738	8	3	0	1	0	0	1
257.324196095765	11.9932001405954	panas_none	269.31739623636	48	5	8	10	n/a	n/a	n/a	n/a	n/a	n/a	n/a	n/a	2000	0	BLOCKED	n/a	n/a	+	0	distressed	At this moment	1	3	12	234	NONE	n/a	0	2818.15409708373	-0.390333379020918	0.000220109917348133	28.5856364985526	2967.53433208489	0.3228285933897	n/a	n/a	n/a	n/a	2440.41089670829	10	4	0	1	0	0	1
270.301667770922	2.51844661086801	reward_vlpfc	272.82011438179	49	2	9	10	0	0	0	0	250	250	250	750	2000	0	BLOCKED	0.75	1	9	1	nervous	At this moment	2	3	12	234	VLPFC	400.555935382843	0.379525593008739	n/a	n/a	n/a	n/a	2813.81287726358	0.260568793235972	n/a	n/a	n/a	n/a	2807.77962577963	2	1	1	0	0	0	0
273.820987460554	2.51869132685664	reward_vlpfc	276.33967878741	50	2	9	10	0	0	0	0	250	250	250	750	2000	0	BLOCKED	0.75	1	10	1	determined	At this moment	1	3	12	234	VLPFC	289.686210036278	0.343320848938826	n/a	n/a	n/a	n/a	2786.52091254753	0.194465795541891	1848.95497966409	1.90602773086945	-0.00066035285916631	36.8833428963098	3016.5	2	2	1	0	0	0	0
277.323790234029	2.51870578402281	reward_vlpfc	279.842496018052	51	2	9	10	0	0	0	0	250	250	250	750	2000	0	BLOCKED	0.75	-1	2	1	interested	At this moment	1	3	12	234	VLPFC	274.363958895206	0.362047440699126	n/a	n/a	n/a	n/a	2873.52837573386	0.182167563412759	1334.22611351641	2.76159073213565	-0.000973652133371245	34.8776666503447	3004.49248120301	2	3	1	0	0	0	0
280.826559156179	2.51893110609052	reward_vlpfc	283.34549026227	52	2	9	10	0	0	0	0	250	250	250	750	2000	0	BLOCKED	0.75	-1	3	1	excited	At this moment	1	3	12	234	VLPFC	358.221838891506	0.418227215980025	n/a	n/a	n/a	n/a	2848.12231759657	0.299000768639508	n/a	n/a	n/a	n/a	3074.4451754386	2	4	1	0	0	0	0
284.3462829445	2.51858166301253	reward_vlpfc	286.864864607513	53	2	9	10	0	0	0	0	250	250	250	750	2000	0	BLOCKED	0.75	-1	6	-1	nervous	At this moment	4	3	12	234	VLPFC	324.091368675232	0.374531835205993	n/a	n/a	n/a	n/a	2919.2375249501	0.260568793235972	n/a	n/a	n/a	n/a	3044.79106029106	2	5	1	0	0	0	0
287.865714766264	2.51877066552635	reward_vlpfc	290.38448543179	54	2	9	10	0	0	0	0	250	250	250	750	2000	0	BLOCKED	0.75	1	4	-1	afraid	At this moment	5	3	12	234	VLPFC	289.743333876133	0.630461922596754	n/a	n/a	n/a	n/a	2863.88175675676	0.203689469638739	1883.59809558198	2.1486713892564	-0.000919332780431979	52.3128132998158	3017.30115830116	3	6	1	0	0	0	0
291.368441727102	2.51871283644437	reward_vlpfc	293.887154563546	55	2	9	10	0	0	0	0	250	250	250	750	2000	0	BLOCKED	0.75	1	8	1	strong	At this moment	1	3	12	234	VLPFC	607.902632653713	0.454431960049938	n/a	n/a	n/a	n/a	2645.34324942792	0.205995388162952	720.313101989532	4.5950807665185	-0.00203330967319489	75.1768658897371	3092.67763794773	2	7	1	0	0	0	0
294.888033284187	2.51878900164365	reward_vlpfc	297.406822285831	56	2	9	10	0	0	0	0	250	250	250	750	2000	0	BLOCKED	0.75	-1	4	1	scared	At this moment	2	3	12	234	VLPFC	306.80081140995	0.403245942571785	n/a	n/a	n/a	n/a	2746.98953974895	0.200614911606457	1709.39681038589	2.06256724647561	-0.000731365675481519	36.7365666149663	2953.60192307692	2	8	1	0	0	0	0
298.407573711872	6.0214627172947	panas_none	304.429036429167	57	5	10	10	n/a	n/a	n/a	n/a	n/a	n/a	n/a	n/a	2000	0	BLOCKED	n/a	n/a	+	0	distressed	At this moment	3	3	12	234	NONE	n/a	0	301.704942046011	1.78939176719199	-0.000400198823969169	31.4269744200555	2273.15106117353	0.313604919292852	n/a	n/a	n/a	n/a	2482.86898096305	6	1	0	1	0	1	1
305.430057606995	6.02144614428283	panas_none	311.451503751278	58	5	10	10	n/a	n/a	n/a	n/a	n/a	n/a	n/a	n/a	2000	0	BLOCKED	n/a	n/a	+	0	afraid	At this moment	3	3	12	234	NONE	n/a	0.453183520599251	n/a	n/a	n/a	n/a	2083.25114155251	0.251345119139124	n/a	n/a	n/a	n/a	2352.01334702259	5	2	0	1	0	1	1
312.435756597161	6.02146060162784	panas_none	318.457217198789	59	5	10	10	n/a	n/a	n/a	n/a	n/a	n/a	n/a	n/a	2000	0	BLOCKED	n/a	n/a	+	0	attentive	At this moment	4	3	12	234	NONE	n/a	0.373283395755306	n/a	n/a	n/a	n/a	1574.04581673307	0	1718.77400930051	0.0192645014614979	-7.10894225352213e-05	31.523385858944	1674.52190622598	1	3	0	1	0	1	1
319.441295499444	5.85480445468426	panas_none	325.296099954128	60	5	10	10	n/a	n/a	n/a	n/a	n/a	n/a	n/a	n/a	2000	0	BLOCKED	n/a	n/a	+	0	irritable	At this moment	2	3	12	234	NONE	n/a	1	n/a	n/a	n/a	n/a	n/a	0.910069177555726	n/a	n/a	n/a	n/a	1948.48717948718	2	4	0	1	0	1	1
326.296808360994	2.51903583323957	reward_vlpfc	328.815844194233	61	2	11	10	0	0	0	0	250	250	250	750	2000	0	BLOCKED	0.75	1	9	1	scared	At this moment	5	3	12	234	VLPFC	390.81454795599	0.444444444444444	n/a	n/a	n/a	n/a	2638.59101123596	0.420445810914681	n/a	n/a	n/a	n/a	3012.21618037135	3	1	1	0	0	0	0
329.816432358801	2.51875938177108	reward_vlpfc	332.335191740572	62	2	11	10	0	0	0	0	250	250	250	750	2000	0	BLOCKED	0.75	-1	0	1	hostile	At this moment	1	3	12	234	VLPFC	357.836076259613	0.903870162297129	n/a	n/a	n/a	n/a	2706.22077922078	0.227517294388932	1772.65100537106	2.01869217661827	-0.000652462557553499	34.3438597560462	3077.60298507463	3	2	1	0	0	0	0
333.335950571597	2.51874386668203	reward_vlpfc	335.854694438279	63	2	11	10	0	0	0	0	250	250	250	750	2000	0	BLOCKED	0.75	-1	2	1	nervous	At this moment	2	3	12	234	VLPFC	390.222504615784	0.449438202247191	n/a	n/a	n/a	n/a	2788.74376417234	0.186779400461184	1855.32077695579	2.62378037079036	-0.00114468191344555	63.7229108313485	3218.16540642722	2	3	1	0	0	0	0
336.838695515871	2.51885776185986	reward_vlpfc	339.357553277731	64	2	11	10	0	0	0	0	250	250	250	750	2000	0	BLOCKED	0.75	1	8	1	irritable	At this moment	3	3	12	234	VLPFC	440.093429327011	0.428214731585518	n/a	n/a	n/a	n/a	2904.43886462882	0.177555726364335	2594.23065125708	1.07415090653581	-0.000385217789403185	49.2391526515234	3232.11028037383	2	4	1	0	0	0	0
340.34158820647	2.5187445719838	reward_vlpfc	342.860332778454	65	2	11	10	0	0	0	0	250	250	250	750	2000	0	BLOCKED	0.75	1	3	-1	strong	At this moment	3	3	12	234	VLPFC	640.539066255093	1	n/a	n/a	n/a	n/a	n/a	0.48424289008455	n/a	n/a	n/a	n/a	3448.31445603577	3	5	1	0	0	0	0
343.861175884783	2.51868004310131	reward_vlpfc	346.379855927885	66	2	11	10	0	0	0	0	250	250	250	750	2000	0	BLOCKED	0.75	-1	8	-1	scared	At this moment	5	3	12	234	VLPFC	323.967952847481	1	n/a	n/a	n/a	n/a	n/a	1	n/a	n/a	n/a	n/a	n/a	4	6	1	0	0	0	0
347.364003341377	2.51861057764296	reward_vlpfc	349.88261391902	67	2	11	10	0	0	0	0	250	250	250	750	2000	0	BLOCKED	0.75	1	8	1	excited	At this moment	3	3	12	234	VLPFC	507.886447608471	0.609238451935081	n/a	n/a	n/a	n/a	2893.50479233227	0.961568024596464	n/a	n/a	n/a	n/a	3211.76	4	7	1	0	0	0	0
350.88368657881	2.51861657208201	reward_vlpfc	353.402303150892	68	2	11	10	0	0	0	0	250	250	250	750	2000	0	BLOCKED	0.75	1	7	1	attentive	At this moment	4	3	12	234	VLPFC	473.366688489914	0.416978776529338	n/a	n/a	n/a	n/a	2702.24411134904	0.190622598001537	970.14789029525	3.50245661940451	-0.00135160469858112	58.4696643324246	2974.70275403609	3	8	1	0	0	0	0
354.403034125209	6.02154522955414	panas_none	360.424579354763	69	5	12	10	n/a	n/a	n/a	n/a	n/a	n/a	n/a	n/a	2000	0	BLOCKED	n/a	n/a	+	0	determined	At this moment	5	3	12	234	NONE	n/a	0.373283395755306	n/a	n/a	n/a	n/a	2341.13944223108	0.0292083013066872	1524.11792292002	3.30537664010114	-0.00192504990041271	64.5343148342269	2688.91053048298	4	1	0	1	0	1	1
361.408799759924	6.02147188532354	panas_none	367.430271645248	70	5	12	10	n/a	n/a	n/a	n/a	n/a	n/a	n/a	n/a	2000	0	BLOCKED	n/a	n/a	+	0	upset	At this moment	3	3	12	234	NONE	n/a	0.0649188514357054	-2647.71869325314	4.57368378229861	-0.00103940139522888	28.0020400421131	2319	0.229823212913144	2801.35253954558	-1.35921096177008	0.000461065773473783	27.6706373664227	2111.71856287425	5	2	0	1	0	1	1
368.414433516085	6.02172894287111	panas_none	374.436162458956	71	5	12	10	n/a	n/a	n/a	n/a	n/a	n/a	n/a	n/a	2000	0	BLOCKED	n/a	n/a	+	0	proud	At this moment	3	3	12	234	NONE	n/a	0.730337078651685	n/a	n/a	n/a	n/a	1982.55555555556	0.229823212913144	2218.88937106561	0.413941546747855	-0.000179187145412579	66.8825696223694	2403.18063872255	11	3	0	1	0	1	1
375.420095481515	14.5618635930419	panas_none	389.981959074557	72	5	12	10	n/a	n/a	n/a	n/a	n/a	n/a	n/a	n/a	2000	0	BLOCKED	n/a	n/a	+	0	afraid	At this moment	5	3	12	234	NONE	n/a	0.298377028714107	n/a	n/a	n/a	n/a	2881.49288256228	0.842428900845503	n/a	n/a	n/a	n/a	2411.30731707317	18	4	0	1	0	1	1
390.96613857621	2.51860070437192	punish_rtpj	393.484739280581	73	3	13	10	750	250	250	250	0	0	0	0	2000	0	BLOCKED	0.25	-1	0	1	interested	At this moment	5	3	12	234	RTPJ	298.267488598824	0.737827715355805	n/a	n/a	n/a	n/a	2747.64761904762	0.308993082244427	n/a	n/a	n/a	n/a	3184.6362625139	5	1	0	0	1	0	0
394.468799245119	2.51921919387576	punish_rtpj	396.988018438995	74	3	13	10	750	250	250	250	0	0	0	0	2000	0	BLOCKED	0.25	1	3	-1	scared	At this moment	2	3	12	234	RTPJ	289.798342108727	1	n/a	n/a	n/a	n/a	n/a	0.203689469638739	2024.00744744243	1.95240423835745	-0.00073580891250925	44.9735040869884	3160.14092664093	2	2	0	0	1	0	0
397.988440873742	2.51868462711576	punish_rtpj	400.507125500858	75	3	13	10	750	250	250	250	0	0	0	0	2000	0	BLOCKED	0.25	1	0	-1	hostile	At this moment	5	3	12	234	RTPJ	491.120231330395	1	n/a	n/a	n/a	n/a	n/a	1	n/a	n/a	n/a	n/a	n/a	2	3	0	0	1	0	0
401.491410434842	2.51856262171265	punish_rtpj	404.009973056555	76	3	13	10	750	250	250	250	0	0	0	0	2000	0	BLOCKED	0.25	1	1	-1	guilty	At this moment	3	3	12	234	RTPJ	423.162188529968	1	n/a	n/a	n/a	n/a	n/a	1	n/a	n/a	n/a	n/a	n/a	6	4	0	0	1	0	0
404.994084855795	2.51861516159778	punish_rtpj	407.512700017393	77	3	13	10	750	250	250	250	0	0	0	0	2000	0	BLOCKED	0.25	1	2	-1	afraid	At this moment	4	3	12	234	RTPJ	307.097361981869	1	n/a	n/a	n/a	n/a	n/a	1	n/a	n/a	n/a	n/a	n/a	2	5	0	0	1	0	0
408.497301601112	2.51835352003576	punish_rtpj	411.015655121148	78	3	13	10	750	250	250	250	0	0	0	0	2000	0	BLOCKED	0.25	-1	9	-1	active	At this moment	4	3	12	234	RTPJ	7.97830420732498	1	n/a	n/a	n/a	n/a	n/a	1	n/a	n/a	n/a	n/a	n/a	2	6	0	0	1	0	0
412.016465081632	2.5188870289922	punish_rtpj	414.535352110624	79	3	13	10	750	250	250	250	0	0	0	0	2000	0	BLOCKED	0.25	1	6	1	determined	At this moment	3	3	12	234	RTPJ	240.976451873779	0.404494382022472	n/a	n/a	n/a	n/a	2674.78616352201	0.803996925441968	n/a	n/a	n/a	n/a	3176.34117647059	6	7	0	0	1	0	0
415.519301000953	2.51871459954975	punish_rtpj	418.038015600502	80	3	13	10	750	250	250	250	0	0	0	0	2000	0	BLOCKED	0.25	1	4	-1	distressed	At this moment	1	3	12	234	RTPJ	423.768689155579	1	n/a	n/a	n/a	n/a	n/a	0.561875480399693	n/a	n/a	n/a	n/a	2933.05964912281	3	8	0	0	1	0	0
419.038939456046	6.0214803481698	panas_none	425.060419804215	81	5	14	10	n/a	n/a	n/a	n/a	n/a	n/a	n/a	n/a	2000	0	BLOCKED	n/a	n/a	+	0	irritable	At this moment	3	3	12	234	NONE	n/a	0.755305867665418	n/a	n/a	n/a	n/a	2051.69387755102	0	2140.93156531637	1.71267662697681	-0.00116487638966439	115.887206082281	2596.70407378939	6	1	0	1	0	0	0
426.061230117261	6.02153394591807	panas_none	432.082764063179	82	5	14	10	n/a	n/a	n/a	n/a	n/a	n/a	n/a	n/a	2000	0	BLOCKED	n/a	n/a	+	0	active	At this moment	4	3	12	234	NONE	n/a	0	1586.78282059056	0.722480123655237	-0.000162706282997446	31.035435096699	2376.93632958801	0.40814757878555	n/a	n/a	n/a	n/a	2489.96233766234	7	2	0	1	0	0	0
433.066918528974	6.02159565377235	panas_none	439.088514182746	83	5	14	10	n/a	n/a	n/a	n/a	n/a	n/a	n/a	n/a	2000	0	BLOCKED	n/a	n/a	+	0	upset	At this moment	3	3	12	234	NONE	n/a	0.430711610486891	n/a	n/a	n/a	n/a	2110.3201754386	0.220599538816295	2330.90680226765	0.0456717733762956	-6.32009013243003e-05	29.3930890524272	2326.0798816568	5	3	0	1	0	0	0
440.089141840398	7.33945558106899	panas_none	447.428597421467	84	5	14	10	n/a	n/a	n/a	n/a	n/a	n/a	n/a	n/a	2000	0	BLOCKED	n/a	n/a	+	0	guilty	At this moment	2	3	12	234	NONE	n/a	0.865168539325843	n/a	n/a	n/a	n/a	2493.41666666667	0.502690238278248	n/a	n/a	n/a	n/a	2344.59196290572	10	4	0	1	0	0	0
448.429382346153	2.51870084738732	punish_rtpj	450.948083193541	85	3	15	10	750	250	250	250	0	0	0	0	2000	0	BLOCKED	0.25	1	3	-1	proud	At this moment	4	3	12	234	RTPJ	257.737378835678	1	n/a	n/a	n/a	n/a	n/a	1	n/a	n/a	n/a	n/a	n/a	2	1	0	0	1	0	0
451.93221050787	2.51869873178003	punish_rtpj	454.45090923965	86	3	15	10	750	250	250	250	0	0	0	0	2000	0	BLOCKED	0.25	-1	1	1	irritable	At this moment	2	3	12	234	RTPJ	290.151663959026	0.484394506866417	n/a	n/a	n/a	n/a	2682.77481840194	0.235203689469639	1857.35607359357	2.93728981829119	-0.00129666395955929	70.0936886726963	3391.55879396985	4	2	0	0	1	0	0
455.435150801837	2.51872306227682	punish_rtpj	457.953873864114	87	3	15	10	750	250	250	250	0	0	0	0	2000	0	BLOCKED	0.25	-1	10	-1	enthusiastic	At this moment	2	3	12	234	RTPJ	274.162967383862	0.963795255930087	n/a	n/a	n/a	n/a	3126.48275862069	0.187548039969254	2321.06711467034	2.10161507068989	-0.0010407681136965	119.824609732656	3278.38505203406	4	3	0	0	1	0	0
458.954690171599	2.51870931029322	punish_rtpj	461.473399481893	88	3	15	10	750	250	250	250	0	0	0	0	2000	0	BLOCKED	0.25	1	8	1	guilty	At this moment	3	3	12	234	RTPJ	256.431992053986	0.722846441947566	n/a	n/a	n/a	n/a	2851.12612612613	0.216756341275942	1439.38620282871	3.05549912375469	-0.0012786939196857	37.5599961336828	3102.97055937193	2	4	0	0	1	0	0
462.474118114591	2.51889126044512	punish_rtpj	464.993009375036	89	3	15	10	750	250	250	250	0	0	0	0	2000	0	BLOCKED	0.25	1	3	-1	alert	At this moment	2	3	12	234	RTPJ	389.796896338463	1	n/a	n/a	n/a	n/a	n/a	0.254419677171407	n/a	n/a	n/a	n/a	3170.52783505155	2	5	0	0	1	0	0
465.99368216759	2.51875373995301	punish_rtpj	468.512435907543	90	3	15	10	750	250	250	250	0	0	0	0	2000	0	BLOCKED	0.25	-1	9	-1	afraid	At this moment	2	3	12	234	RTPJ	456.549342870712	1	n/a	n/a	n/a	n/a	n/a	1	n/a	n/a	n/a	n/a	n/a	3	6	0	0	1	0	0
469.496504687488	2.51872482544184	punish_rtpj	472.01522951293	91	3	15	10	750	250	250	250	0	0	0	0	2000	0	BLOCKED	0.25	-1	7	-1	proud	At this moment	3	3	12	234	RTPJ	556.603610575199	1	n/a	n/a	n/a	n/a	n/a	1	n/a	n/a	n/a	n/a	n/a	5	7	0	0	1	0	0
472.999287714362	2.5187301146388	punish_rtpj	475.518017829001	92	3	15	10	750	250	250	250	0	0	0	0	2000	0	BLOCKED	0.25	1	3	-1	upset	At this moment	5	3	12	234	RTPJ	289.995807409286	0.968789013732834	n/a	n/a	n/a	n/a	3256.32	0.201383551114527	1707.8287819276	2.91052822384052	-0.00125533164106274	46.0998513179999	3243.27718960539	2	8	0	0	1	0	0
476.50218957305	6.02152936190367	panas_none	482.523718934953	93	5	16	10	n/a	n/a	n/a	n/a	n/a	n/a	n/a	n/a	2000	0	BLOCKED	n/a	n/a	+	0	hostile	At this moment	2	3	12	234	NONE	n/a	0.373283395755306	n/a	n/a	n/a	n/a	2208.56573705179	0	2509.82197256987	0.722065057779182	-0.000590252949849597	121.43331075392	2621.68178324366	9	1	0	1	0	0	0
483.524713666499	6.02136892127993	panas_none	489.546082587779	94	5	16	10	n/a	n/a	n/a	n/a	n/a	n/a	n/a	n/a	2000	0	BLOCKED	n/a	n/a	+	0	active	At this moment	4	3	12	234	NONE	n/a	0.379525593008739	n/a	n/a	n/a	n/a	2389.19114688129	0.223674096848578	2841.50250428876	-0.272053597473762	-0.000136161181377588	64.6070017870924	2415.3	4	2	0	1	0	0	0
490.546922520578	6.02153183019163	panas_none	496.56845435077	95	5	16	10	n/a	n/a	n/a	n/a	n/a	n/a	n/a	n/a	2000	0	BLOCKED	n/a	n/a	+	0	strong	At this moment	3	3	12	234	NONE	n/a	0	7446.86002234628	-5.35823288391923	0.0012592208607814	15.7159438137745	1815.33583021223	0.229823212913144	1976.41763063121	0.354293554311979	-0.000187348536928935	68.0560761166823	2103.00898203593	7	3	0	1	0	0	0
497.569219528913	9.34098628985885	panas_none	506.910205818772	96	5	16	10	n/a	n/a	n/a	n/a	n/a	n/a	n/a	n/a	2000	0	BLOCKED	n/a	n/a	+	0	enthusiastic	At this moment	3	3	12	234	NONE	n/a	0.168539325842697	5199.28324090388	-2.9964332389242	0.000827626055607087	29.7330380448812	2558.95945945946	0.272867025365104	n/a	n/a	n/a	n/a	2343.48202959831	10	4	0	1	0	0	0
