onset	duration	trial_type	offset	trial	block	blockCntr	frequency	amplitude_1	amplitude_2	amplitude_3	amplitude_4	amplitude_5	amplitude_6	amplitude_7	amplitude_8	transition	sham	mode	rewardFraction	guess	outcome	correct	word	when	answer	runNr	scanNr	subjectNr	target	reactionTime	outcomeEyeClosed	outcomeParms_1	outcomeParms_2	outcomeParms_3	outcomeSigma	outcomePupilArea	guessEyeClosed	guessParms_1	guessParms_2	guessParms_3	guessSigma	guessPupilArea	nrBlinks	trialInBlock	isReward	isPanas	isPunish	beforePanasReward	beforePanasVLPFC
20.462271253109	2.50562652754784	reward_rtpj	22.9678977806568	1	1	1	10	750	250	250	250	0	0	0	0	2000	0	BLOCKED	0.75	1	2	-1	alert	At this moment	5	1	7	233	RTPJ	796.375876665115	0.421972534332085	n/a	n/a	n/a	n/a	1518.88552915767	0	694.793599712989	0.652000282971547	1.35290885927984e-05	50.7911741119725	1261.96925441968	2	1	1	0	0	0	0
23.9686506171227	2.51870895767212	reward_rtpj	26.4873595747948	2	1	1	10	750	250	250	250	0	0	0	0	2000	0	BLOCKED	0.75	1	8	1	inspired	At this moment	1	1	7	233	RTPJ	573.589154481888	0.374531835205993	n/a	n/a	n/a	n/a	1300.18562874252	0	817.309139365003	0.692597899342889	-0.000188954955874782	35.4024223585569	1240.6956187548	2	2	1	0	0	0	0
27.4715408396721	2.53535352110863	reward_rtpj	30.0068943607807	3	1	1	10	750	250	250	250	0	0	0	0	2000	0	BLOCKED	0.75	1	6	1	active	At this moment	5	1	7	233	RTPJ	274.441181898117	0	7727.22374189644	-5.8082490537101	0.0012674714910467	21.7517666336564	1185.16104868914	0.230591852421214	918.970316111339	0.951295164372228	-0.000385593167436507	27.5160530761899	1361.18781218781	1	3	1	0	0	0	0
31.0078238582611	2.51870507884025	reward_rtpj	33.5265289371014	4	1	1	10	750	250	250	250	0	0	0	0	2000	0	BLOCKED	0.75	-1	9	-1	attentive	At this moment	1	1	7	233	RTPJ	557.357504844666	0	1544.34168445231	-0.22736304498359	-5.65919134165998e-06	42.5432728385273	1044.75655430712	0.13989239046887	952.146200013482	-0.0583742294703141	8.92834172987867e-05	26.9967559598136	968.478999106345	2	4	1	0	0	0	0
34.5105747969151	2.51873469877243	reward_rtpj	37.0293094956875	5	1	1	10	750	250	250	250	0	0	0	0	2000	0	BLOCKED	0.75	-1	1	1	determined	At this moment	4	1	7	233	RTPJ	857.250203609467	0	5487.5451898129	-4.08172416500691	0.000941129564343405	25.3523813237989	1116.51685393258	0	733.379491954345	0.683419757710491	-0.000214685184916577	25.5770081862862	1129.02997694081	0	5	1	0	0	0	0
38.0133934378624	2.51869485306739	reward_rtpj	40.5320882909298	6	1	1	10	750	250	250	250	0	0	0	0	2000	0	BLOCKED	0.75	1	8	1	scared	At this moment	1	1	7	233	RTPJ	623.607825517654	0	7223.26329229713	-5.57121017595533	0.00127627520269651	21.1616312416123	1219.0986267166	0	398.463810866571	1.39600141315993	-0.000476158931813751	29.8898310039182	1180.93005380477	1	6	1	0	0	0	0
41.5329349236488	2.51860740375519	reward_rtpj	44.051542327404	7	1	1	10	750	250	250	250	0	0	0	0	2000	0	BLOCKED	0.75	-1	3	1	upset	At this moment	5	1	7	233	RTPJ	409.504993200302	0	5072.08344128135	-3.63324100492012	0.000845993138113032	22.1336294932024	1218.53807740325	0	909.657774884388	0.651972141627956	-0.000264333870574523	19.1648335867254	1235.62797847809	0	7	1	0	0	0	0
45.0356989090443	2.51878829646111	reward_rtpj	47.5544872055054	8	1	1	10	750	250	250	250	0	0	0	0	2000	0	BLOCKED	0.75	1	8	1	distressed	At this moment	2	1	7	233	RTPJ	556.746067762375	0	8017.46518441287	-6.15226085568334	0.00140070063954097	35.1607035631091	1349.45942571785	0	575.39721126833	0.865790791035855	-0.000197780453936008	27.3932562524917	1140.82705611068	0	8	1	0	0	0	0
48.5516965973377	6.00845222115517	panas_none	54.5601488184929	9	5	2	10	n/a	n/a	n/a	n/a	n/a	n/a	n/a	n/a	2000	0	BLOCKED	n/a	n/a	+	0	alert	At this moment	3	1	7	233	NONE	n/a	0.0474406991260924	2651.01229135395	-1.40351513868472	0.000308567276387747	15.7816332040402	1081.00524246396	0	758.117172630685	1.07419460656039	-0.000474334912910655	78.7034375302728	1269.13220599539	3	1	0	1	0	1	0
55.5626749641895	6.0198717110157	panas_none	61.5825466752052	10	5	2	10	n/a	n/a	n/a	n/a	n/a	n/a	n/a	n/a	2000	0	BLOCKED	n/a	n/a	+	0	attentive	At this moment	3	1	7	233	NONE	n/a	0	3145.92228271591	-2.05279876517476	0.000442713823764386	13.7516059457493	811.119850187266	0.231360491929285	970.854882315802	0.133559642113506	-3.66113170194133e-05	37.0102665584903	1045.527	3	2	0	1	0	1	0
62.5667416915894	6.02154910850524	panas_none	68.5882908000946	11	5	2	10	n/a	n/a	n/a	n/a	n/a	n/a	n/a	n/a	2000	0	BLOCKED	n/a	n/a	+	0	interested	At this moment	3	1	7	233	NONE	n/a	0	-368.487740135446	1.13816004484201	-0.000249012667275416	16.5211434816161	909.483146067416	0	897.268489430444	0.11320821891127	-6.58315989909729e-05	21.045589621366	936.348962336664	1	3	0	1	0	1	0
69.5723620486259	6.87227907752991	panas_none	76.4446411261559	12	5	2	10	n/a	n/a	n/a	n/a	n/a	n/a	n/a	n/a	2000	0	BLOCKED	n/a	n/a	+	0	proud	At this moment	3	1	7	233	NONE	n/a	0	-2111.28176503901	3.22527276538915	-0.000803759937628588	36.652658072642	1075.7191011236	0.353574173712529	n/a	n/a	n/a	n/a	1011.73602853746	11	4	0	1	0	1	0
77.4286598346233	2.51876996016503	reward_vlpfc	79.9474297947884	13	2	3	10	0	0	0	0	250	250	250	750	2000	0	BLOCKED	0.75	1	9	1	scared	At this moment	3	1	7	233	VLPFC	657.012963294983	0	8922.79581562887	-7.03074183665818	0.00157495905828711	21.2647118283431	1179.64918851436	0	711.858114148462	0.927025101510853	-0.00034856181796654	34.5633834301207	1199.39508070715	0	1	1	0	0	0	0
80.9482764275074	2.51870472621918	reward_vlpfc	83.4669811537266	14	2	3	10	0	0	0	0	250	250	250	750	2000	0	BLOCKED	0.75	-1	0	1	nervous	At this moment	2	1	7	233	VLPFC	523.750317811966	0	7532.85384831729	-6.14589966832536	0.00145463613260675	30.1783843664439	1118.9038701623	0	735.167558119777	0.802835999671488	-0.000330947036320808	36.4276786748869	1133.11299000769	0	2	1	0	0	0	0
84.467895488739	2.51896636772156	reward_vlpfc	86.9868618564606	15	2	3	10	0	0	0	0	250	250	250	750	2000	0	BLOCKED	0.75	1	10	1	distressed	At this moment	1	1	7	233	VLPFC	423.151609897614	0	5657.64032283165	-4.32960317078711	0.00100831975209358	23.309238919386	1065.58302122347	0	864.438440907764	0.581764821728445	-0.000307303000637424	44.2911137547865	1094.72867025365	0	3	1	0	0	0	0
87.9705600364208	2.518879976511	reward_vlpfc	90.4894400129318	16	2	3	10	0	0	0	0	250	250	250	750	2000	0	BLOCKED	0.75	-1	4	1	upset	At this moment	1	1	7	233	VLPFC	610.701703310013	0	6187.62733438958	-4.60532937501062	0.00107320671286122	25.1726488119599	1306.4531835206	0	679.876235348049	0.877673708398021	-0.000276974254399175	18.3439876454967	1190.32590315142	0	4	1	0	0	0	0
91.4902802984714	2.51853406000137	reward_vlpfc	94.0088143584728	17	2	3	10	0	0	0	0	250	250	250	750	2000	0	BLOCKED	0.75	1	8	1	scared	At this moment	3	1	7	233	VLPFC	342.311070680618	0	6674.67297040765	-4.86164813983946	0.00107593459863493	24.327817178777	1267.07740324594	0	1019.99642754944	0.814720293098188	-0.000347979297844982	22.6157472980645	1411.91083781706	0	5	1	0	0	0	0
95.0096969575882	2.51877771806717	reward_vlpfc	97.5284746756554	18	2	3	10	0	0	0	0	250	250	250	750	2000	0	BLOCKED	0.75	-1	7	-1	jittery	At this moment	2	1	7	233	VLPFC	306.718652009964	0.374531835205993	n/a	n/a	n/a	n/a	1465.07984031936	0	887.771401893351	0.45621526437604	2.68352663907374e-05	33.5874924012508	1298.16064565719	1	6	1	0	0	0	0
98.5292620687485	2.51853547000884	reward_vlpfc	101.047797538757	19	2	3	10	0	0	0	0	250	250	250	750	2000	0	BLOCKED	0.75	1	7	1	active	At this moment	1	1	7	233	VLPFC	266.963240623474	0	5392.29791707203	-3.70345203788337	0.000779935706911559	25.4134640123508	1082.09238451935	0.199846272098386	850.118239636871	0.716194624170619	-0.000416069464124442	21.8144285301396	1112.62151777137	1	7	1	0	0	0	0
102.048912512541	2.5186479551792	reward_vlpfc	104.56756046772	20	2	3	10	0	0	0	0	250	250	250	750	2000	0	BLOCKED	0.75	-1	9	-1	proud	At this moment	4	1	7	233	VLPFC	539.79860663414	0	1421.59248659889	-0.114570426757232	3.8067236926602e-06	29.8130073459612	1197.81897627965	0	833.915163421539	0.229445496897321	-2.66787632176361e-05	20.4871146234111	1014.6956187548	1	8	1	0	0	0	0
105.568396874189	6.0215353562832	panas_none	111.589932230473	21	5	4	10	n/a	n/a	n/a	n/a	n/a	n/a	n/a	n/a	2000	0	BLOCKED	n/a	n/a	+	0	guilty	At this moment	1	1	7	233	NONE	n/a	0.267166042446941	n/a	n/a	n/a	n/a	891.780238500852	0.0514988470407379	755.574771760929	0.380593862997756	-0.000213210621159622	40.5956149696448	895.324959481361	4	1	0	1	0	1	1
112.574096922398	6.02161328458786	panas_none	118.595710206985	22	5	4	10	n/a	n/a	n/a	n/a	n/a	n/a	n/a	n/a	2000	0	BLOCKED	n/a	n/a	+	0	nervous	At this moment	1	1	7	233	NONE	n/a	0.397003745318352	n/a	n/a	n/a	n/a	931.55900621118	0	1033.49425804525	-0.234766157871	0.000144333481809314	22.0933132390502	959.006917755573	3	2	0	1	0	1	1
119.59636395812	6.03816793107985	panas_none	125.6345318892	23	5	4	10	n/a	n/a	n/a	n/a	n/a	n/a	n/a	n/a	2000	0	BLOCKED	n/a	n/a	+	0	strong	At this moment	3	1	7	233	NONE	n/a	0.98876404494382	n/a	n/a	n/a	n/a	450.888888888889	0	722.261014252442	0.152485181920906	-8.63377860226741e-05	13.1492461443822	777.192928516526	6	3	0	1	0	1	1
126.63547690177	12.3432370419502	panas_none	138.97871394372	24	5	4	10	n/a	n/a	n/a	n/a	n/a	n/a	n/a	n/a	2000	0	BLOCKED	n/a	n/a	+	0	ashamed	At this moment	1	1	7	233	NONE	n/a	0	-626.754888792503	1.83866539751021	-0.000399511726633778	17.202742700685	1450.57178526841	0.30130668716372	n/a	n/a	n/a	n/a	990.514851485148	4	4	0	1	0	1	1
139.97955704999	2.51868533253671	punish_vlpfc	142.498242382526	25	4	5	10	0	0	0	0	250	250	250	750	2000	0	BLOCKED	0.25	1	2	-1	afraid	At this moment	4	1	7	233	VLPFC	807.000921487808	0	4478.49313965678	-3.08645327283495	0.000706740304527778	20.159064781063	1150.29712858926	0	848.823573184618	0.181645580975232	-3.29303356638904e-06	21.1802163900602	1000.29438893159	1	1	0	0	1	0	0
143.499021665096	2.51868885850908	punish_vlpfc	146.017710523605	26	4	5	10	0	0	0	0	250	250	250	750	2000	0	BLOCKED	0.25	-1	1	1	enthusiastic	At this moment	4	1	7	233	VLPFC	757.32040977478	0	9034.40936921541	-6.9391040779847	0.0015588411404443	31.3198425768423	1419.33957553059	0	810.960304515467	1.14071800997005	-0.000382932584964457	22.261077021131	1449.75634127594	0	2	0	0	1	0	0
147.030574331522	2.50676971054077	punish_vlpfc	149.537344042063	27	4	5	10	0	0	0	0	250	250	250	750	2000	0	BLOCKED	0.25	-1	9	-1	inspired	At this moment	2	1	7	233	VLPFC	644.743314504623	0	1692.13238316434	0.0278503486630272	-7.05830586150794e-05	25.9381948966992	1435.44319600499	0	1016.34930491453	0.86935728264348	-0.000363698481021555	29.5905908806627	1442.09377401998	0	3	0	0	1	0	0
150.538245682955	2.51857566833496	punish_vlpfc	153.05682135129	28	4	5	10	0	0	0	0	250	250	250	750	2000	0	BLOCKED	0.25	1	2	-1	determined	At this moment	5	1	7	233	VLPFC	424.050782203674	0	4862.48095930487	-3.05606616662074	0.000683826671536178	21.7977338592461	1497.94382022472	0	1094.11458879401	0.580523052438075	-0.000180869738350591	21.728585586809	1431.22905457341	0	4	0	0	1	0	0
154.057628843546	2.55211268496512	punish_vlpfc	156.609741528511	29	4	5	10	0	0	0	0	250	250	250	750	2000	0	BLOCKED	0.25	1	1	-1	attentive	At this moment	3	1	7	233	VLPFC	1523.37160754204	0	5300.71435907729	-3.64076684396066	0.00081741356220884	17.519876837661	1303.38701622971	0	994.764416913548	0.642432952793137	-0.000195410260111859	22.4841760173862	1372.24135280553	0	5	0	0	1	0	0
157.59564462018	2.53358232760428	punish_vlpfc	160.129226947784	30	4	5	10	0	0	0	0	250	250	250	750	2000	0	BLOCKED	0.25	1	0	-1	interested	At this moment	2	1	7	233	VLPFC	954.987780332565	0	3779.41946089595	-2.09967908697728	0.000446438785223714	19.047197839459	1362.75530586767	0	895.977850434103	0.429056821184382	-4.67853013133928e-05	24.5627056789492	1220.42582628747	0	6	0	0	1	0	0
161.130017867088	2.518741751194	punish_vlpfc	163.648759618282	31	4	5	10	0	0	0	0	250	250	250	750	2000	0	BLOCKED	0.25	-1	2	1	guilty	At this moment	4	1	7	233	VLPFC	540.709415435791	0	7678.33041851008	-5.92821223553536	0.0013538569725664	29.2093674742534	1271.75655430712	0	861.132246098196	0.339322183533984	-2.5050211610506e-05	26.4958105563788	1128.21060722521	0	7	0	0	1	0	0
164.649583330631	2.51878618049622	punish_vlpfc	167.168369511127	32	4	5	10	0	0	0	0	250	250	250	750	2000	0	BLOCKED	0.25	-1	7	-1	scared	At this moment	3	1	7	233	VLPFC	390.37800860405	0.364544319600499	n/a	n/a	n/a	n/a	1476.50491159136	0	1089.37866678337	0.542727008184157	-0.000132412691286967	40.6431115472377	1435.1521906226	1	8	0	0	1	0	0
168.169017268181	6.02172259569167	panas_none	174.190739863873	33	5	6	10	n/a	n/a	n/a	n/a	n/a	n/a	n/a	n/a	2000	0	BLOCKED	n/a	n/a	+	0	proud	At this moment	1	1	7	233	NONE	n/a	0.238451935081149	3506.73058351124	-2.16753735303042	0.000498068080730254	19.7364294051821	1178.65901639344	0.314373558800922	n/a	n/a	n/a	n/a	1598.4899103139	5	1	0	1	0	0	1
175.19161400032	6.05467180061339	panas_none	181.246285800934	34	5	6	10	n/a	n/a	n/a	n/a	n/a	n/a	n/a	n/a	2000	0	BLOCKED	n/a	n/a	+	0	interested	At this moment	3	1	7	233	NONE	n/a	0	1544.21394705271	0.12532402160194	-0.000124958524317667	20.153464380914	1249.7265917603	0.24750192159877	1676.63556350775	-0.535549600985893	0.000273370256901375	46.0784321515092	1468.02145045965	3	2	0	1	0	0	1
182.247708608866	6.02100078940393	panas_none	188.26870939827	35	5	6	10	n/a	n/a	n/a	n/a	n/a	n/a	n/a	n/a	2000	0	BLOCKED	n/a	n/a	+	0	attentive	At this moment	3	1	7	233	NONE	n/a	0	518.096755575839	0.352772556886779	-6.75549194454732e-05	16.3144865285359	956.455680399501	0	853.054372385614	0.0105019462460484	4.95853753796094e-07	19.8142303163166	862.323597232898	2	3	0	1	0	0	1
189.269499964952	9.19090488839149	panas_none	198.460404853344	36	5	6	10	n/a	n/a	n/a	n/a	n/a	n/a	n/a	n/a	2000	0	BLOCKED	n/a	n/a	+	0	irritable	At this moment	3	1	7	233	NONE	n/a	0.47565543071161	n/a	n/a	n/a	n/a	1504.22380952381	0.312836279784781	n/a	n/a	n/a	n/a	1234.03579418345	7	4	0	1	0	0	1
199.44447116518	2.51869238448143	punish_rtpj	201.963163549662	37	3	7	10	750	250	250	250	0	0	0	0	2000	0	BLOCKED	0.25	1	4	-1	enthusiastic	At this moment	3	1	7	233	RTPJ	990.400011539459	0	3228.32772759429	-1.65930879090241	0.000373425759680101	23.1822589095129	1410.33957553059	0.0399692544196772	899.35060629302	0.731894716028317	-0.000288620751314829	40.3985326545516	1281.76220976781	1	1	0	0	1	0	0
202.963972452164	2.53566452908518	punish_rtpj	205.499636981249	38	3	7	10	750	250	250	250	0	0	0	0	2000	0	BLOCKED	0.25	-1	6	-1	interested	At this moment	1	1	7	233	RTPJ	521.728414058685	0	2255.68172355801	-0.957897953739286	0.000191344934567659	17.9256460821319	1097.67790262172	0	528.852576738954	0.927082224894145	-0.000369720506144218	51.5520442851547	998.329746348962	0	2	0	0	1	0	0
206.500213861942	2.51875691342354	punish_rtpj	209.018970775366	39	3	7	10	750	250	250	250	0	0	0	0	2000	0	BLOCKED	0.25	1	4	-1	excited	At this moment	5	1	7	233	RTPJ	506.63183760643	0	2153.05794430542	-1.11814142539825	0.000268735403740433	17.0013489869918	1004.26966292135	0	718.903007518778	0.819981048057153	-0.00041601308235089	21.0834803913222	1056.58800922367	1	3	0	0	1	0	0
210.003206343174	2.51878265452385	punish_rtpj	212.521988997698	40	3	7	10	750	250	250	250	0	0	0	0	2000	0	BLOCKED	0.25	1	9	1	scared	At this moment	3	1	7	233	RTPJ	240.722568035126	0	4066.9694770645	-2.9712742519761	0.000675318005684513	21.3964639501807	841.631710362047	0	745.230252287046	0.278870459591989	-9.70696455206461e-05	18.3198614857311	898.328209069946	0	4	0	0	1	0	0
213.522794726849	2.51850620293615	punish_rtpj	216.041300929785	41	3	7	10	750	250	250	250	0	0	0	0	2000	0	BLOCKED	0.25	1	1	-1	determined	At this moment	5	1	7	233	RTPJ	457.577572822571	0	-961.078713998974	1.61607207904266	-0.000291534242940635	17.9754173543258	1130.98252184769	0.102229054573405	706.579794727259	0.297516843608084	-0.000115107343302588	15.0089793307761	855.350171232877	1	5	0	0	1	0	0
217.042105953693	2.51875515031816	punish_rtpj	219.560861104012	42	3	7	10	750	250	250	250	0	0	0	0	2000	0	BLOCKED	0.25	1	0	-1	afraid	At this moment	5	1	7	233	RTPJ	273.187629699707	0	2910.84494833472	-1.19294977445638	0.000283031897148006	25.2351335213585	1668.84019975031	0	1033.87425906913	0.863253182214272	-0.000226432821499558	29.2373440448321	1571.75557263643	0	6	0	0	1	0	0
220.545031437635	2.51861234068869	punish_rtpj	223.063643778324	43	3	7	10	750	250	250	250	0	0	0	0	2000	0	BLOCKED	0.25	1	4	-1	alert	At this moment	3	1	7	233	RTPJ	306.548337936401	0	3443.4607347874	-1.87507876836912	0.000409421107269177	18.7105110714076	1332.55555555556	0	1066.99157860895	0.508466141679869	-0.000192136596929317	24.4016842455601	1334.06840891622	0	7	0	0	1	0	0
224.064429055452	2.51862045097351	punish_rtpj	226.583049506426	44	3	7	10	750	250	250	250	0	0	0	0	2000	0	BLOCKED	0.25	-1	3	1	interested	At this moment	5	1	7	233	RTPJ	357.436914205551	0.385767790262172	n/a	n/a	n/a	n/a	1407.75406504065	0	847.966861312383	0.79291231669953	-0.000211369177844563	31.6430175263731	1339.84704073789	1	8	0	0	1	0	0
227.58401179719	6.02152795124056	panas_none	233.60553974843	45	5	8	10	n/a	n/a	n/a	n/a	n/a	n/a	n/a	n/a	2000	0	BLOCKED	n/a	n/a	+	0	proud	At this moment	2	1	7	233	NONE	n/a	0	-870.895331832263	2.58832913623253	-0.000654536553533315	36.5013331624805	1647.11860174782	0.475787855495772	n/a	n/a	n/a	n/a	1601.83431085044	5	1	0	1	0	0	0
234.606282359123	6.02178289341924	panas_none	240.628065252542	46	5	8	10	n/a	n/a	n/a	n/a	n/a	n/a	n/a	n/a	2000	0	BLOCKED	n/a	n/a	+	0	nervous	At this moment	1	1	7	233	NONE	n/a	0	8447.78860128462	-6.26796017273586	0.00131038541121486	19.5081335143086	1116.55805243446	0.384319754035357	n/a	n/a	n/a	n/a	1049.49563046192	4	2	0	1	0	0	0
241.628692910194	6.05492180538178	panas_none	247.683614715576	47	5	8	10	n/a	n/a	n/a	n/a	n/a	n/a	n/a	n/a	2000	0	BLOCKED	n/a	n/a	+	0	irritable	At this moment	2	1	7	233	NONE	n/a	0	1281.41021528457	-0.348935473811045	7.30893844250153e-05	14.5590165495531	875.159800249688	0.248270561106841	1233.09293663974	-0.292643202418134	0.000116267129467399	28.9215710391139	1090.21165644172	4	3	0	1	0	0	0
248.684511419535	5.654692745924	panas_none	254.339204165459	48	5	8	10	n/a	n/a	n/a	n/a	n/a	n/a	n/a	n/a	2000	0	BLOCKED	n/a	n/a	+	0	determined	At this moment	3	1	7	233	NONE	n/a	0	-284.663832993688	1.67207116343619	-0.000399199848365976	23.952070622111	1444.67665418227	0.240584166026134	909.904247057074	0.549002863604984	-0.000193390867316547	20.2736049338547	1188.03744939271	3	4	0	1	0	0	0
255.339868495226	2.51870507884024	reward_rtpj	257.858573574066	49	1	9	10	750	250	250	250	0	0	0	0	2000	0	BLOCKED	0.75	1	10	1	upset	At this moment	2	1	7	233	RTPJ	640.987947225571	0	4259.3191948787	-3.05482244899143	0.000676997903185366	17.7790196335037	866.088639200999	0	678.849102788223	0.419153550404408	-0.000143637133264673	19.4631148433732	910.889315910838	1	1	1	0	0	0	0
258.859321826696	2.5188161530495	reward_rtpj	261.378137979746	50	1	9	10	750	250	250	250	0	0	0	0	2000	0	BLOCKED	0.75	1	7	1	distressed	At this moment	3	1	7	233	RTPJ	440.138211488724	0	2529.61123905996	-1.31284731410936	0.000278969762573007	17.9193149516499	1017.54806491885	0	572.514113458573	0.669458358150042	-0.000223955349950234	24.3194219911078	947.941583397387	0	2	1	0	0	0	0
262.362228621721	2.51870719456673	reward_rtpj	264.880935816288	51	1	9	10	750	250	250	250	0	0	0	0	2000	0	BLOCKED	0.75	1	8	1	interested	At this moment	2	1	7	233	RTPJ	440.308878183365	0	6244.16332208076	-4.99078411544519	0.0011994052828797	21.353183843769	1115.25218476904	0	868.697523269781	0.701932190732398	-0.00034682861051134	24.4567511224912	1166.13143735588	0	3	1	0	0	0	0
265.865107560635	2.51878230166437	reward_rtpj	268.383889862299	52	1	9	10	750	250	250	250	0	0	0	0	2000	0	BLOCKED	0.75	1	8	1	excited	At this moment	3	1	7	233	RTPJ	306.639665365219	0	9640.70817733692	-7.53007611005272	0.00169379793949062	20.8478645577555	1380.05118601748	0	954.329780307335	0.00884098093173031	0.000225505188526368	25.5400916154103	1156.69946195234	0	4	1	0	0	0	0
269.384503415346	2.51876608133313	reward_rtpj	271.903269496679	53	1	9	10	750	250	250	250	0	0	0	0	2000	0	BLOCKED	0.75	1	10	1	proud	At this moment	5	1	7	233	RTPJ	407.902350664139	0	7690.25341547859	-5.61258342719701	0.00122640172368958	25.7796018045682	1374.63670411985	0	902.7640587103	0.546115883202644	-0.000107401722742457	37.1597443342481	1274.17448116833	0	5	1	0	0	0	0
272.904154564381	2.51868039584161	reward_rtpj	275.422834960222	54	1	9	10	750	250	250	250	0	0	0	0	2000	0	BLOCKED	0.75	1	1	-1	attentive	At this moment	4	1	7	233	RTPJ	373.608618974686	0.380774032459426	n/a	n/a	n/a	n/a	1412.53024193548	0	791.230369805365	0.787642024484682	-0.000278447655867918	64.535437721703	1220.56648731745	1	6	1	0	0	0	0
276.423635047436	2.51878018617629	reward_rtpj	278.942415233612	55	1	9	10	750	250	250	250	0	0	0	0	2000	0	BLOCKED	0.75	1	6	1	ashamed	At this moment	4	1	7	233	RTPJ	407.591695308685	0	3477.73978676972	-2.36206713809197	0.000513550019152905	14.8947693912592	809.496878901373	0	752.506623049117	0.509618352977474	-0.000240147836635719	22.1955292700277	978.214450422752	0	7	1	0	0	0	0
279.926426184654	2.5187784230709	reward_rtpj	282.445204607725	56	1	9	10	750	250	250	250	0	0	0	0	2000	0	BLOCKED	0.75	1	2	-1	active	At this moment	1	1	7	233	RTPJ	923.565757989883	0.378277153558052	n/a	n/a	n/a	n/a	1210.25301204819	0	670.852284031378	0.781996531451901	-0.000328357072101117	50.3178164228388	1052.25057647963	1	8	1	0	0	0	0
283.429385519505	6.02149480557443	panas_none	289.450880325079	57	5	10	10	n/a	n/a	n/a	n/a	n/a	n/a	n/a	n/a	2000	0	BLOCKED	n/a	n/a	+	0	distressed	At this moment	1	1	7	233	NONE	n/a	0	501.462511031849	0.152805976684386	-6.46291882992334e-06	15.8235295606182	792.712858926342	0.242121445042275	957.193622336756	-0.0776241864267245	-3.48006913966324e-05	49.697049262655	844.605476673428	4	1	0	1	0	1	0
290.436585598946	6.02032870197297	panas_none	296.456914300919	58	5	10	10	n/a	n/a	n/a	n/a	n/a	n/a	n/a	n/a	2000	0	BLOCKED	n/a	n/a	+	0	interested	At this moment	3	1	7	233	NONE	n/a	0	504.340167451172	0.545827473106041	-0.000136852508406087	14.861439673455	1039.90012484395	0	1628.18954707019	-1.07568477298825	0.000514023495545899	64.4514698010373	1157.54112221368	1	2	0	1	0	1	0
297.457403027773	6.02163761520387	panas_none	303.479040642977	59	5	10	10	n/a	n/a	n/a	n/a	n/a	n/a	n/a	n/a	2000	0	BLOCKED	n/a	n/a	+	0	jittery	At this moment	1	1	7	233	NONE	n/a	0	1937.23208020322	-1.05527922242995	0.000254820680945228	15.417713933803	858.479400749064	0	949.563839967656	0.0971282800159135	-6.91524755377364e-05	23.5723569916766	971.785549577248	3	3	0	1	0	1	0
304.47973600316	6.90564154863358	panas_none	311.385377551794	60	5	10	10	n/a	n/a	n/a	n/a	n/a	n/a	n/a	n/a	2000	0	BLOCKED	n/a	n/a	+	0	scared	At this moment	3	1	7	233	NONE	n/a	0.0212234706616729	1199.66070054173	-0.207171217322553	6.46359485574772e-05	15.0985224771183	1052.08928571429	0	516.311676905119	0.796119681428978	-0.000287359860400713	28.4783349499757	946.0476556495	2	4	0	1	0	1	0
312.369630397797	2.51864301824571	punish_vlpfc	314.888273416042	61	4	11	10	0	0	0	0	250	250	250	750	2000	0	BLOCKED	0.25	1	1	-1	alert	At this moment	4	1	7	233	VLPFC	840.13383936882	0.470661672908864	n/a	n/a	n/a	n/a	1176.37264150943	0	590.04889153704	1.18980009753036	-0.000563586998006348	32.9368576080608	1114.75326671791	2	1	0	0	1	0	0
315.888961371183	2.51867369604111	punish_vlpfc	318.407635067224	62	4	11	10	0	0	0	0	250	250	250	750	2000	0	BLOCKED	0.25	1	0	-1	enthusiastic	At this moment	2	1	7	233	VLPFC	109.93141245842	1	n/a	n/a	n/a	n/a	n/a	1	n/a	n/a	n/a	n/a	n/a	1	2	0	0	1	0	0
319.410369256735	2.51696632623674	punish_vlpfc	321.927335582972	63	4	11	10	0	0	0	0	250	250	250	750	2000	0	BLOCKED	0.25	-1	8	-1	determined	At this moment	3	1	7	233	VLPFC	408.013072013855	0	5116.39111021708	-3.42025524857998	0.000786908022168386	27.8423420418985	1446.12484394507	0	993.458912879697	0.718432216090682	-0.000252145583723969	35.1383815929947	1386.70945426595	0	3	0	0	1	0	0
322.911450202942	2.51877595472331	punish_vlpfc	325.430226157665	64	4	11	10	0	0	0	0	250	250	250	750	2000	0	BLOCKED	0.25	-1	10	-1	hostile	At this moment	2	1	7	233	VLPFC	356.802556991577	0.459425717852684	n/a	n/a	n/a	n/a	1341.86374133949	0.154496541122214	895.525566959407	0.400043008063278	-9.83337534267006e-05	42.0185654413448	1179.15636363636	2	4	0	0	1	0	0
326.430877440691	2.51870190525051	punish_vlpfc	328.949579345942	65	4	11	10	0	0	0	0	250	250	250	750	2000	0	BLOCKED	0.25	1	0	-1	proud	At this moment	5	1	7	233	VLPFC	1151.43439173698	0	1670.56423259456	-0.135403694082172	-1.48655845703253e-05	24.0363967331185	1320.25343320849	0	874.521107255072	0.753402939855978	-0.000296033598318066	50.8184031372274	1260.13528055342	0	5	0	0	1	0	0
329.950328303814	2.5188073375225	punish_vlpfc	332.469135641336	66	4	11	10	0	0	0	0	250	250	250	750	2000	0	BLOCKED	0.25	-1	9	-1	jittery	At this moment	5	1	7	233	VLPFC	373.935141801834	0.181023720349563	1703.21407203801	-0.274716755975666	3.38757189946152e-05	21.0641735243296	1286.15243902439	0	803.827260590959	0.643391375470068	-0.000200677282300548	41.0696183667506	1178.31591083782	1	6	0	0	1	0	0
333.469947012424	2.51868074822426	punish_vlpfc	335.988627760649	67	4	11	10	0	0	0	0	250	250	250	750	2000	0	BLOCKED	0.25	-1	0	1	alert	At this moment	3	1	7	233	VLPFC	1488.36312150955	0	5422.04078632051	-3.85936942093825	0.00085480436866189	23.4214053033803	1131.50936329588	0.582628747117602	n/a	n/a	n/a	n/a	1468.09944751381	1	7	0	0	1	0	0
336.989445125818	2.51875550317766	punish_vlpfc	339.508200628996	68	4	11	10	0	0	0	0	250	250	250	750	2000	0	BLOCKED	0.25	1	10	1	nervous	At this moment	2	1	7	233	VLPFC	340.793761253357	0	9240.52894151533	-6.87040792914685	0.00148870497450653	37.9157333387827	1457.26966292135	0.586471944657955	n/a	n/a	n/a	n/a	1482.81598513011	1	8	0	0	1	0	0
340.509072649956	6.02149057412151	panas_none	346.530563224077	69	5	12	10	n/a	n/a	n/a	n/a	n/a	n/a	n/a	n/a	2000	0	BLOCKED	n/a	n/a	+	0	afraid	At this moment	1	1	7	233	NONE	n/a	0	-984.784332327617	1.85032319140445	-0.000423269532542979	15.1011821590725	1011.37453183521	0	976.753099891266	0.280332009358756	-0.000213148233940634	39.8756282877839	1032.39892390469	3	1	0	1	0	0	1
347.531387641907	6.02158719086646	panas_none	353.552974832773	70	5	12	10	n/a	n/a	n/a	n/a	n/a	n/a	n/a	n/a	2000	0	BLOCKED	n/a	n/a	+	0	hostile	At this moment	1	1	7	233	NONE	n/a	0	-369.8389721709	1.04288981359578	-0.000227373027047388	13.8188779853035	805.061173533084	0	969.202812168306	-0.301623990184464	0.000113002265723894	22.0179342805035	812.349730976172	2	2	0	1	0	0	1
354.553756231308	6.02149586319922	panas_none	360.575252094507	71	5	12	10	n/a	n/a	n/a	n/a	n/a	n/a	n/a	n/a	2000	0	BLOCKED	n/a	n/a	+	0	strong	At this moment	3	1	7	233	NONE	n/a	0	1260.62301062713	-0.425921757812227	0.000105328991371433	16.6456918314038	836.112359550562	0.27978478093774	n/a	n/a	n/a	n/a	752.789754535752	2	3	0	1	0	0	1
361.559462979078	6.12164040064812	panas_none	367.681103379726	72	5	12	10	n/a	n/a	n/a	n/a	n/a	n/a	n/a	n/a	2000	0	BLOCKED	n/a	n/a	+	0	active	At this moment	1	1	7	233	NONE	n/a	0	-1761.38259725113	4.04593012269845	-0.00102931823628446	32.1726919081565	2140.08239700375	0.257494235203689	n/a	n/a	n/a	n/a	2140.65010351967	4	4	0	1	0	0	1
368.681898530245	2.51882602667808	punish_rtpj	371.200724556923	73	3	13	10	750	250	250	250	0	0	0	0	2000	0	BLOCKED	0.25	1	4	-1	proud	At this moment	1	1	7	233	RTPJ	1488.39697313309	0.0973782771535581	6949.56496023269	-5.06636006238196	0.00118182584380701	21.2069599770473	1578.7275242047	0	1012.58125134211	1.42971035808258	-0.000648569646845212	37.2121782418562	1671.89469638739	1	1	0	0	1	0	0
372.201329646826	2.5186962635517	punish_rtpj	374.720025910378	74	3	13	10	750	250	250	250	0	0	0	0	2000	0	BLOCKED	0.25	1	0	-1	ashamed	At this moment	2	1	7	233	RTPJ	306.966541290283	0.455680399500624	n/a	n/a	n/a	n/a	1586.73165137615	0	974.684793097148	1.04987756135799	-0.000487265098892685	34.6234414923943	1446.92851652575	1	2	0	0	1	0	0
375.724172329187	2.51547581577302	punish_rtpj	378.23964814496	75	3	13	10	750	250	250	250	0	0	0	0	2000	0	BLOCKED	0.25	1	2	-1	alert	At this moment	1	1	7	233	RTPJ	1485.69451928139	0.157303370786517	2988.97425763378	-1.33629149588731	0.000275112852951277	18.2670813493833	1419.47259259259	0	1008.76679738662	0.448620563083369	-0.000124500061264944	45.1146938249029	1283.06994619523	1	3	0	0	1	0	0
379.240503593206	2.53536833095546	punish_rtpj	381.775871924162	76	3	13	10	750	250	250	250	0	0	0	0	2000	0	BLOCKED	0.25	1	1	-1	attentive	At this moment	1	1	7	233	RTPJ	390.222857236862	0.358302122347066	n/a	n/a	n/a	n/a	1030.2859922179	0	704.874056965369	0.93015371583908	-0.000415214399969127	28.0508711255546	1137.02305918524	1	4	0	0	1	0	0
382.77658667779	2.51884400987626	punish_rtpj	385.295430687666	77	3	13	10	750	250	250	250	0	0	0	0	2000	0	BLOCKED	0.25	-1	7	-1	active	At this moment	2	1	7	233	RTPJ	1308.85480356216	0.350811485642946	n/a	n/a	n/a	n/a	1918.70384615385	0	797.721395167176	0.946854181548768	-0.000123547957436007	40.6703224565522	1497.25441967717	1	5	0	0	1	0	0
386.29610700655	2.51880486941337	punish_rtpj	388.814911875963	78	3	13	10	750	250	250	250	0	0	0	0	2000	0	BLOCKED	0.25	1	9	1	enthusiastic	At this moment	4	1	7	233	RTPJ	374.3713285923	0.405742821473159	n/a	n/a	n/a	n/a	1165.38445378151	0	1104.17010786223	0.646379276020712	-0.00033454891753193	22.7498835110935	1364.25441967717	1	6	0	0	1	0	0
389.815826916218	2.51859188866615	punish_rtpj	392.334418804884	79	3	13	10	750	250	250	250	0	0	0	0	2000	0	BLOCKED	0.25	-1	10	-1	ashamed	At this moment	2	1	7	233	RTPJ	206.202455997467	0.418227215980025	n/a	n/a	n/a	n/a	1254.50643776824	0	622.945392370003	0.628522745693268	-0.000117487551375646	25.1627499345068	1056.72790161414	1	7	0	0	1	0	0
393.318568334103	2.51871072077751	punish_rtpj	395.83727905488	80	3	13	10	750	250	250	250	0	0	0	0	2000	0	BLOCKED	0.25	1	10	1	scared	At this moment	3	1	7	233	RTPJ	1488.23547458649	0.106117353308365	4612.43612701186	-3.1910787170644	0.000696480967967814	22.573078373176	1023.56424581006	0	837.240618358055	0.51774795970031	-0.000189005540713011	21.8976620513886	1114.05764796311	1	8	0	0	1	0	0
396.838085841656	6.02159530138965	panas_none	402.859681143045	81	5	14	10	n/a	n/a	n/a	n/a	n/a	n/a	n/a	n/a	2000	0	BLOCKED	n/a	n/a	+	0	guilty	At this moment	1	1	7	233	NONE	n/a	0.461922596754057	n/a	n/a	n/a	n/a	1196.71693735499	0.182167563412759	348.811116935743	2.04473319241269	-0.0009175883690854	74.811873070425	1384.98402255639	4	1	0	1	0	0	0
403.843784832001	6.02144297075273	panas_none	409.865227802753	82	5	14	10	n/a	n/a	n/a	n/a	n/a	n/a	n/a	n/a	2000	0	BLOCKED	n/a	n/a	+	0	upset	At this moment	2	1	7	233	NONE	n/a	0.409488139825218	n/a	n/a	n/a	n/a	1033.89852008457	0.273635664873174	n/a	n/a	n/a	n/a	1238.09735449735	3	2	0	1	0	0	0
410.86619432497	6.0381443054676	panas_none	416.904338630438	83	5	14	10	n/a	n/a	n/a	n/a	n/a	n/a	n/a	n/a	2000	0	BLOCKED	n/a	n/a	+	0	proud	At this moment	1	1	7	233	NONE	n/a	0	816.876307619234	-0.0334271119852963	2.82462179058324e-05	17.297312789376	872.287141073658	0	686.90103312525	0.119574990125223	1.0717761787498e-05	26.9720684971566	797.790930053805	2	3	0	1	0	0	0
417.905191257715	14.4450152521134	panas_none	432.350206509829	84	5	14	10	n/a	n/a	n/a	n/a	n/a	n/a	n/a	n/a	2000	0	BLOCKED	n/a	n/a	+	0	alert	At this moment	3	1	7	233	NONE	n/a	0.31210986267166	n/a	n/a	n/a	n/a	1195.67332123412	0.245196003074558	760.765816697656	0.78913584216908	-0.000328000683402733	34.81372551505	1138.09470468432	6	4	0	1	0	0	0
433.352963972092	2.51682633757588	reward_vlpfc	435.869790309668	85	2	15	10	0	0	0	0	250	250	250	750	2000	0	BLOCKED	0.75	1	4	-1	scared	At this moment	5	1	7	233	VLPFC	589.050336360931	0.116104868913858	475.921928782456	0.474920537211929	-0.000121086992360537	12.9146123621492	934.625706214689	0	537.398264201103	0.383660682319961	-8.50248785856373e-05	23.093726084133	791.425057647963	1	1	1	0	0	0	0
436.870669735432	2.51860951972009	reward_vlpfc	439.389279255152	86	2	15	10	0	0	0	0	250	250	250	750	2000	0	BLOCKED	0.75	-1	6	-1	afraid	At this moment	4	1	7	233	VLPFC	339.818071126938	0	3932.26258253795	-2.47334501126679	0.000609248506633609	35.3902712807456	1459.82147315855	0.272098385857033	n/a	n/a	n/a	n/a	1144.34107708553	1	2	1	0	0	0	0
440.390026097298	2.51877807044986	reward_vlpfc	442.908804167748	87	2	15	10	0	0	0	0	250	250	250	750	2000	0	BLOCKED	0.75	1	8	1	upset	At this moment	4	1	7	233	VLPFC	825.12929558754	0.485642946317104	n/a	n/a	n/a	n/a	1555.86165048544	0.23674096848578	938.621108446302	1.11308781224697	-0.000369831926347081	35.9032347188184	1590.20241691843	2	3	1	0	0	0	0
443.910945961237	2.51756119036673	reward_vlpfc	446.428507151604	88	2	15	10	0	0	0	0	250	250	250	750	2000	0	BLOCKED	0.75	-1	0	1	alert	At this moment	4	1	7	233	VLPFC	722.604948282242	0.555555555555556	n/a	n/a	n/a	n/a	1555.75561797753	0	1050.60629695102	0.975139000942211	-0.000297323384174395	49.3864071128821	1622.95080707148	1	4	1	0	0	0	0
447.429197222471	2.51873364067075	reward_vlpfc	449.947930863142	89	2	15	10	0	0	0	0	250	250	250	750	2000	0	BLOCKED	0.75	-1	3	1	determined	At this moment	2	1	7	233	VLPFC	541.057447910309	0.515605493133583	n/a	n/a	n/a	n/a	1367.44329896907	0	1163.61064281448	0.783723863031238	-0.000265429445682159	23.8692539127986	1601.83704842429	1	5	1	0	0	0	0
450.931952039957	2.519455447197	reward_vlpfc	453.451407487154	90	2	15	10	0	0	0	0	250	250	250	750	2000	0	BLOCKED	0.75	-1	4	1	proud	At this moment	2	1	7	233	VLPFC	590.698819160461	0	7060.09585782836	-4.91686945091612	0.00101647734735362	34.3587076300971	1270.67166042447	0.249807840122982	1408.52341320012	0.528863620992854	-0.000342515348461025	35.079959550713	1539.11168032787	1	6	1	0	0	0	0
454.434881402731	2.51867087507247	reward_vlpfc	456.953552277803	91	2	15	10	0	0	0	0	250	250	250	750	2000	0	BLOCKED	0.75	-1	3	1	ashamed	At this moment	1	1	7	233	VLPFC	606.881807565689	0	7167.12614052601	-5.51783034500601	0.00124590542226523	28.3830691746255	1139.11111111111	0	478.222220727676	1.16743367388829	-0.000422322760058386	23.1322628664726	1116.1621829362	0	7	1	0	0	0	0
457.954403846979	2.51866981720929	reward_vlpfc	460.473073664188	92	2	15	10	0	0	0	0	250	250	250	750	2000	0	BLOCKED	0.75	1	8	1	active	At this moment	5	1	7	233	VLPFC	1488.45374417305	0.503121098626717	n/a	n/a	n/a	n/a	1014.30904522613	0	793.046901297711	0.592565172724836	-0.000279524987424211	38.8142005082618	1055.86779400461	1	8	1	0	0	0	0
461.475331115723	6.0200945649147	panas_none	467.495425680637	93	5	16	10	n/a	n/a	n/a	n/a	n/a	n/a	n/a	n/a	2000	0	BLOCKED	n/a	n/a	+	0	determined	At this moment	4	1	7	233	NONE	n/a	0	461.414189969905	0.375762374461314	-9.62616168916426e-05	16.9451771129502	820.886392009988	0	708.624892974205	0.64273249513509	-0.000374757303832495	46.7426475254158	933.961568024596	1	1	0	1	0	1	1
468.479607650518	6.02158578038217	panas_none	474.501193430901	94	5	16	10	n/a	n/a	n/a	n/a	n/a	n/a	n/a	n/a	2000	0	BLOCKED	n/a	n/a	+	0	upset	At this moment	1	1	7	233	NONE	n/a	0	2723.45182056493	-1.59129161262646	0.000350044515697294	16.7216910640423	943.786516853933	0	1119.60075273016	0.15401107017094	-0.000114915147963015	20.0876963239079	1150.82090699462	1	2	0	1	0	1	1
475.485336260557	6.02148881101607	panas_none	481.506825071573	95	5	16	10	n/a	n/a	n/a	n/a	n/a	n/a	n/a	n/a	2000	0	BLOCKED	n/a	n/a	+	0	excited	At this moment	3	1	7	233	NONE	n/a	0	-1328.95797485178	1.90671517816986	-0.000428890920360061	14.4070935969055	760.777777777778	0	718.603286991134	0.00109729110557911	1.43078694297294e-05	16.4605779246845	731.982321291314	1	3	0	1	0	1	1
482.507671351433	9.55772528409955	panas_none	492.065396635532	96	5	16	10	n/a	n/a	n/a	n/a	n/a	n/a	n/a	n/a	2000	0	BLOCKED	n/a	n/a	+	0	guilty	At this moment	4	1	7	233	NONE	n/a	0	-383.393947773424	1.88958122999378	-0.000537400630341803	32.5839577424307	1184.49812734082	0	755.051339665363	0.340416843898308	1.91556902469729e-05	35.9183428076476	1060.0192159877	4	4	0	1	0	1	1
