onset	duration	trial_type	offset	trial	block	blockCntr	frequency	amplitude_1	amplitude_2	amplitude_3	amplitude_4	amplitude_5	amplitude_6	amplitude_7	amplitude_8	transition	sham	mode	rewardFraction	guess	outcome	correct	word	when	answer	runNr	scanNr	subjectNr	target	reactionTime	outcomeEyeClosed	outcomeParms_1	outcomeParms_2	outcomeParms_3	outcomeSigma	outcomePupilArea	guessEyeClosed	guessParms_1	guessParms_2	guessParms_3	guessSigma	guessPupilArea	nrBlinks	trialInBlock	isReward	isPanas	isPunish	beforePanasReward	beforePanasVLPFC
20.2913216459751	2.50339023256302	punish_vlpfc	22.7947118785381	1	4	1	10	0	0	0	0	250	250	250	750	2000	0	BLOCKED	0.25	1	4	-1	guilty	At this moment	2	2	11	233	VLPFC	1243.43101644516	0.441947565543071	n/a	n/a	n/a	n/a	2139.13199105145	0	1981.02617918628	-0.0834525147457367	0.000183030835840694	15.3678920490819	2080.10376633359	1	1	0	0	1	0	0
23.7955539271831	2.51869238471985	punish_vlpfc	26.314246311903	2	4	1	10	0	0	0	0	250	250	250	750	2000	0	BLOCKED	0.25	1	3	-1	jittery	At this moment	2	2	11	233	VLPFC	356.866380691528	0.0649188514357054	-827.610285077073	2.91469916527363	-0.000746560325222233	39.3573474786219	1959.04539385848	0.0760953112990008	1247.66106113929	0.72370262655842	-0.000178026497674541	25.1041505560033	1691.67387687188	1	2	0	0	1	0	0
27.2982600836754	2.51880310606957	punish_vlpfc	29.8170631897449	3	4	1	10	0	0	0	0	250	250	250	750	2000	0	BLOCKED	0.25	-1	10	-1	enthusiastic	At this moment	2	2	11	233	VLPFC	341.521914720535	0.399500624219725	n/a	n/a	n/a	n/a	1693.47609147609	0	1161.56078441957	1.31227361312017	-0.000545469680453719	32.9869247470155	1808.04534973098	2	3	0	0	1	0	0
30.8010956504345	2.51898399853706	punish_vlpfc	33.3200796489716	4	4	1	10	0	0	0	0	250	250	250	750	2000	0	BLOCKED	0.25	1	2	-1	strong	At this moment	1	2	11	233	VLPFC	896.113847255707	0	2787.71257983885	-1.60544286638928	0.000443754902018268	20.8716331510403	1396.78651685393	0	954.31454690512	0.603997847598671	-0.000273929585040518	19.798262317466	1231.62413528055	0	4	0	0	1	0	0
34.3040574538708	2.51870402097702	punish_vlpfc	36.8227614748478	5	4	1	10	0	0	0	0	250	250	250	750	2000	0	BLOCKED	0.25	-1	9	-1	proud	At this moment	4	2	11	233	VLPFC	1472.61596775055	0	2153.39461295274	-0.410269274718753	4.67386865243921e-05	15.1673337577378	1500.35455680399	0	1073.3047470864	0.366117202076062	-0.000103033925893946	30.4482160288355	1296.25211375865	0	5	0	0	1	0	0
37.806900072813	2.51870684218407	punish_vlpfc	40.3256069149971	6	4	1	10	0	0	0	0	250	250	250	750	2000	0	BLOCKED	0.25	1	8	1	attentive	At this moment	5	2	11	233	VLPFC	891.154999494553	0	7162.30560895075	-5.32133623339934	0.00116763698148068	24.0937226184761	1198.79900124844	0	742.514348373554	1.08423437458435	-0.000402308386577139	15.94381181595	1323.82321291314	0	6	0	0	1	0	0
41.3096379649639	2.51886023020744	punish_vlpfc	43.8284981951714	7	4	1	10	0	0	0	0	250	250	250	750	2000	0	BLOCKED	0.25	-1	6	-1	excited	At this moment	5	2	11	233	VLPFC	374.339593172073	0	3586.74388655339	-1.92521185079209	0.000414272792992905	11.9264095401013	1392.85018726592	0	733.730367283035	0.47681518443667	3.53990367435907e-05	12.6966774627455	1172.41660261337	0	7	0	0	1	0	0
44.812603294611	2.51873963522911	punish_vlpfc	47.3313429298401	8	4	1	10	0	0	0	0	250	250	250	750	2000	0	BLOCKED	0.25	1	9	1	irritable	At this moment	4	2	11	233	VLPFC	423.38081073761	0.162297128589263	7023.5390158101	-5.08764302896158	0.00110997417017508	14.2208780593201	1305.47242921013	0	858.05168054049	0.891279777197384	-0.000318309850883439	25.6285876020992	1340.95465026902	1	8	0	0	1	0	0
48.3320273587704	6.02161857390404	panas_none	54.3536459326744	9	5	2	10	n/a	n/a	n/a	n/a	n/a	n/a	n/a	n/a	2000	0	BLOCKED	n/a	n/a	+	0	alert	At this moment	4	2	11	233	NONE	n/a	0	-2421.30253814222	3.38695382000809	-0.000739772907338536	11.5640554057526	1389.75156054931	0.0307455803228286	887.078020307	0.767377176574774	-0.000365233542185392	57.5313430659335	1230.86835844568	5	1	0	1	0	0	1
55.354485865593	6.02165489339828	panas_none	61.3761407589912	10	5	2	10	n/a	n/a	n/a	n/a	n/a	n/a	n/a	n/a	2000	0	BLOCKED	n/a	n/a	+	0	afraid	At this moment	1	2	11	233	NONE	n/a	0	2552.36478398009	-1.22588256057595	0.000295732890489909	10.4497297243633	1298.03495630462	0	1522.52517505084	-0.174456261406992	7.65397282198099e-05	24.1847027456893	1440.4381245196	4	2	0	1	0	0	1
62.3602539684773	6.03830404090881	panas_none	68.3985580093861	11	5	2	10	n/a	n/a	n/a	n/a	n/a	n/a	n/a	n/a	2000	0	BLOCKED	n/a	n/a	+	0	distressed	At this moment	1	2	11	233	NONE	n/a	0	1823.38989115262	-0.845973536184937	0.000224446984320756	7.54641023120518	1048.52933832709	0	1415.80068198365	-0.542271894424144	0.000202999887130861	10.975045256103	1130.66333589547	3	3	0	1	0	0	1
69.3992664163113	13.7945715372562	panas_none	83.1938379535675	12	5	2	10	n/a	n/a	n/a	n/a	n/a	n/a	n/a	n/a	2000	0	BLOCKED	n/a	n/a	+	0	irritable	At this moment	3	2	11	233	NONE	n/a	0	1861.1090723551	-0.205875228534097	8.10943284271047e-05	10.3133370163583	1790.58426966292	0	1107.09465330461	0.536318308503802	-5.75419159631596e-05	28.7078813900692	1513.43197540354	4	4	0	1	0	0	1
84.1947117376328	2.51903583312034	reward_rtpj	86.7137475707531	13	1	3	10	750	250	250	250	0	0	0	0	2000	0	BLOCKED	0.75	1	10	1	guilty	At this moment	4	2	11	233	RTPJ	623.77813911438	0	6421.89011615029	-4.91676361707972	0.00110880749868433	14.7993231025002	1044.20349563046	0	633.995674843351	0.849718120411695	-0.000325720291441296	24.6758922396487	1074.94696387394	0	1	1	0	0	0	0
87.6979743230343	2.51811973524093	reward_rtpj	90.2160940582752	14	1	3	10	750	250	250	250	0	0	0	0	2000	0	BLOCKED	0.75	-1	0	1	nervous	At this moment	2	2	11	233	RTPJ	456.563447713852	0	5536.88590065072	-4.43706505647643	0.00109678877654059	16.4662228844861	1113.59800249688	0	834.620804510345	0.148799822710357	2.58369176478735e-05	9.41010905955222	983.464258262875	0	2	1	0	0	0	0
91.2002393562794	2.51878477001191	reward_rtpj	93.7190241262913	15	1	3	10	750	250	250	250	0	0	0	0	2000	0	BLOCKED	0.75	1	10	1	attentive	At this moment	3	2	11	233	RTPJ	673.7315762043	0.692883895131086	n/a	n/a	n/a	n/a	1441.06504065041	0	963.063102211211	1.12158958091034	-0.000483135383494792	14.899201504075	1505.31744811683	2	3	1	0	0	0	0
94.7030386033058	2.51882814192773	reward_rtpj	97.2218667452335	16	1	3	10	750	250	250	250	0	0	0	0	2000	0	BLOCKED	0.75	-1	4	1	active	At this moment	4	2	11	233	RTPJ	406.644567012787	0	8662.85369123983	-6.79957787220136	0.00157317737744294	37.3837518162172	1405.22347066167	0	889.377433263739	0.159844622230882	0.000131330848186288	10.5101551089996	1138.40507302075	0	4	1	0	0	0	0
98.2059291782379	2.51878159666062	reward_rtpj	100.724710774899	17	1	3	10	750	250	250	250	0	0	0	0	2000	0	BLOCKED	0.75	1	9	1	hostile	At this moment	3	2	11	233	RTPJ	422.971775531769	0	9205.8011253115	-7.07745891586257	0.00160320032446163	30.8158719734529	1498.93882646692	0	954.069969080592	0.798258094363021	-0.000160438046911571	19.6676101600205	1494.97540353574	0	5	1	0	0	0	0
101.725518619776	2.51873681426049	reward_rtpj	104.244255434036	18	1	3	10	750	250	250	250	0	0	0	0	2000	0	BLOCKED	0.75	1	7	1	afraid	At this moment	5	2	11	233	RTPJ	607.865255355835	0	5951.17729252948	-4.34039356771838	0.000981002362799943	21.3440851839555	1214.4556803995	0	936.430049498289	0.431195354863969	-7.13087400710715e-06	46.7266910174282	1298.57033051499	1	6	1	0	0	0	0
105.228298825741	2.53537890934945	reward_rtpj	107.76367773509	19	1	3	10	750	250	250	250	0	0	0	0	2000	0	BLOCKED	0.75	1	3	-1	jittery	At this moment	3	2	11	233	RTPJ	325.068469047546	0	607.360078263964	0.404047859200651	-0.000104776631062777	8.685990206504	988.220973782772	0	823.039061411162	0.376188366536364	-0.000182653078230228	10.7457336278459	985.202920830131	0	7	1	0	0	0	0
108.747787418604	2.51877454423905	reward_rtpj	111.266561962843	20	1	3	10	750	250	250	250	0	0	0	0	2000	0	BLOCKED	0.75	1	4	-1	alert	At this moment	3	2	11	233	RTPJ	1471.57892203331	0.805243445692884	n/a	n/a	n/a	n/a	786.064102564103	0.214450422751729	1119.4294413276	-0.471051514345031	0.00019936698508328	10.7681284387954	880.878669275929	9	8	1	0	0	0	0
112.267402248621	6.02161540007592	panas_none	118.289017648697	21	5	4	10	n/a	n/a	n/a	n/a	n/a	n/a	n/a	n/a	2000	0	BLOCKED	n/a	n/a	+	0	guilty	At this moment	1	2	11	233	NONE	n/a	0	1724.0450064922	-1.0267320312216	0.000325114192148132	13.3093291297456	1018.97503121099	0.512682551883167	n/a	n/a	n/a	n/a	1004.2429022082	0	1	0	1	0	1	0
119.289705603838	6.02174375271797	panas_none	125.311449356556	22	5	4	10	n/a	n/a	n/a	n/a	n/a	n/a	n/a	n/a	2000	0	BLOCKED	n/a	n/a	+	0	inspired	At this moment	3	2	11	233	NONE	n/a	0	-1492.38343505373	2.54511785556046	-0.000560339199289314	15.8449677916791	1351.53183520599	0.37586471944658	n/a	n/a	n/a	n/a	1267.24507389163	4	2	0	1	0	1	0
126.31213836956	6.02147505879401	panas_none	132.333613428354	23	5	4	10	n/a	n/a	n/a	n/a	n/a	n/a	n/a	n/a	2000	0	BLOCKED	n/a	n/a	+	0	hostile	At this moment	1	2	11	233	NONE	n/a	0	47.6128261480516	0.726352005325449	-0.000115441939247071	12.7773210371547	1058.11360799001	0	1157.68344417685	0.0306541089667519	-0.000173979870614392	14.8947861796877	1036.34127594158	0	3	0	1	0	1	0
133.317719233274	9.40778986573218	panas_none	142.725509099007	24	5	4	10	n/a	n/a	n/a	n/a	n/a	n/a	n/a	n/a	2000	0	BLOCKED	n/a	n/a	+	0	strong	At this moment	2	2	11	233	NONE	n/a	0	3293.96177468625	-1.94599284378149	0.000506991971582286	10.6630249105561	1470.13732833958	0.34435049961568	n/a	n/a	n/a	n/a	1020.13950762016	4	4	0	1	0	1	0
143.71065935421	2.51762748241424	punish_rtpj	146.228286836624	25	3	5	10	750	250	250	250	0	0	0	0	2000	0	BLOCKED	0.25	1	0	-1	excited	At this moment	3	2	11	233	RTPJ	956.048803806305	0.535580524344569	n/a	n/a	n/a	n/a	2736.67741935484	0	1813.13157674973	1.31359393080547	-0.000460223405395319	28.7301782582669	2531.74942352037	1	1	0	0	1	0	0
147.22910349679	2.51869908452034	punish_rtpj	149.74780258131	26	3	5	10	750	250	250	250	0	0	0	0	2000	0	BLOCKED	0.25	-1	7	-1	alert	At this moment	4	2	11	233	RTPJ	707.130719661713	0	5211.99551198765	-2.94820666346971	0.000626816540176141	17.0928592237353	1815.24843945069	0.673328209069946	n/a	n/a	n/a	n/a	1665.36	4	2	0	0	1	0	0
150.731973267555	2.51863138175008	punish_rtpj	153.250604649305	27	3	5	10	750	250	250	250	0	0	0	0	2000	0	BLOCKED	0.25	1	9	1	proud	At this moment	4	2	11	233	RTPJ	424.617084503174	0	7963.68755202621	-5.76123779310175	0.00125453912336276	38.0296188149519	1464.80524344569	0	1272.39382004778	0.976580210392827	-0.000491978672270473	40.6501129997656	1678.3428132206	0	3	0	0	1	0	0
154.251349375725	2.51914549708366	punish_rtpj	156.770494872808	28	3	5	10	750	250	250	250	0	0	0	0	2000	0	BLOCKED	0.25	-1	7	-1	inspired	At this moment	3	2	11	233	RTPJ	408.348057985306	0	3388.80319185072	-1.74978923682359	0.000434789297206682	16.0337399313114	1654.58426966292	0	1050.10686922613	0.565341709993017	-0.000154011698537389	32.2287793488091	1397.72482705611	0	4	0	0	1	0	0
157.771056238413	2.51863843441009	punish_rtpj	160.289694672823	29	3	5	10	750	250	250	250	0	0	0	0	2000	0	BLOCKED	0.25	1	0	-1	excited	At this moment	1	2	11	233	RTPJ	406.671718358994	0.807740324594257	n/a	n/a	n/a	n/a	2010.3961038961	0	1103.4201036104	0.757822063558263	-0.000105917792130972	35.8816879971296	1657.64104534973	2	5	0	0	1	0	0
161.273840675831	2.51869379496574	punish_rtpj	163.792534470797	30	3	5	10	750	250	250	250	0	0	0	0	2000	0	BLOCKED	0.25	-1	8	-1	guilty	At this moment	5	2	11	233	RTPJ	356.553609609604	0.645443196004994	n/a	n/a	n/a	n/a	1852.79577464789	0	1108.0619823322	1.04258896149175	-0.000353316399999123	35.8737956605823	1689.24827056111	1	6	0	0	1	0	0
164.77654260087	2.51869520568849	punish_rtpj	167.295237806559	31	3	5	10	750	250	250	250	0	0	0	0	2000	0	BLOCKED	0.25	1	8	1	active	At this moment	4	2	11	233	RTPJ	525.23166012764	0	7719.79803221294	-5.32729832488798	0.00112951152623652	24.7593674620933	1573.55805243446	0	1265.05220694606	0.944483871624523	-0.000444819123433781	35.3035588709662	1684.06917755573	0	7	0	0	1	0	0
168.296159546375	2.53541699194909	punish_rtpj	170.831576538324	32	3	5	10	750	250	250	250	0	0	0	0	2000	0	BLOCKED	0.25	1	2	-1	afraid	At this moment	1	2	11	233	RTPJ	439.998575210571	0.00124843945068664	531.542682021488	0.697696488435902	-0.000171899430737961	9.00295440433717	1229.3675	0	882.092446065694	0.58404630391817	-0.00026599002164244	28.1572784335068	1149.32282859339	2	8	0	0	1	0	0
171.832376272917	6.02154522967336	panas_none	177.85392150259	33	5	6	10	n/a	n/a	n/a	n/a	n/a	n/a	n/a	n/a	2000	0	BLOCKED	n/a	n/a	+	0	scared	At this moment	1	2	11	233	NONE	n/a	0	-823.710238706439	1.37671459194452	-0.00025968324737416	14.4389398182009	908.936329588015	0.210607225211376	1646.9723317655	-1.05423955878846	0.000348593055162971	21.2674618426734	977.157740993184	3	1	0	1	0	0	0
178.855042470932	6.02135199570657	panas_none	184.876394466639	34	5	6	10	n/a	n/a	n/a	n/a	n/a	n/a	n/a	n/a	2000	0	BLOCKED	n/a	n/a	+	0	enthusiastic	At this moment	4	2	11	233	NONE	n/a	0	1917.76749237522	-0.908490360742977	0.000300332596320282	19.7138750705372	1350.9975031211	0	837.58245259552	-0.196437570798232	0.000382910590801681	10.3408445415706	997.577248270561	2	2	0	1	0	0	0
185.877137429714	6.03831673526764	panas_none	191.915454164982	35	5	6	10	n/a	n/a	n/a	n/a	n/a	n/a	n/a	n/a	2000	0	BLOCKED	n/a	n/a	+	0	upset	At this moment	1	2	11	233	NONE	n/a	0	2426.59517123312	-1.44844876837611	0.00033971724524936	14.0503793543089	900.813982521848	0	1048.52843557541	-0.0481519750584372	-4.19099747961236e-05	12.3167690893824	971.437355880092	0	3	0	1	0	0	0
192.916169271469	8.57359796977042	panas_none	201.48976724124	36	5	6	10	n/a	n/a	n/a	n/a	n/a	n/a	n/a	n/a	2000	0	BLOCKED	n/a	n/a	+	0	afraid	At this moment	3	2	11	233	NONE	n/a	0	2111.64077064763	-0.411384016128415	0.000193945180703179	10.635007788934	2113.63420724095	0.364335126825519	n/a	n/a	n/a	n/a	1854.44256348247	6	4	0	1	0	0	0
202.474475667953	2.51816310691834	reward_rtpj	204.992638774872	37	1	7	10	750	250	250	250	0	0	0	0	2000	0	BLOCKED	0.75	1	6	1	scared	At this moment	3	2	11	233	RTPJ	509.494026899338	0.731585518102372	n/a	n/a	n/a	n/a	2037.48837209302	0	1244.79188802774	1.25257575884938	-0.000474059842225225	12.4380230612157	1905.90084550346	2	1	1	0	0	0	0
205.976778078079	2.5188411889076	reward_rtpj	208.495619266987	38	1	7	10	750	250	250	250	0	0	0	0	2000	0	BLOCKED	0.75	-1	3	1	attentive	At this moment	3	2	11	233	RTPJ	306.276823282242	0.554307116104869	n/a	n/a	n/a	n/a	1359.46778711485	0	1145.94515292712	1.12497832429071	-0.000575800161650932	42.1869589445613	1605.23597232898	2	2	1	0	0	0	0
209.479688046932	2.51876008725168	reward_rtpj	211.998448134184	39	1	7	10	750	250	250	250	0	0	0	0	2000	0	BLOCKED	0.75	1	1	-1	interested	At this moment	1	2	11	233	RTPJ	473.37938284874	0.770287141073658	n/a	n/a	n/a	n/a	1024.05434782609	0	1001.37265223931	0.352203152437197	-0.000220607212462652	15.7318108093307	1110.5142198309	2	3	1	0	0	0	0
212.982424175978	2.51876890230179	reward_rtpj	215.501193078279	40	1	7	10	750	250	250	250	0	0	0	0	2000	0	BLOCKED	0.75	1	10	1	active	At this moment	2	2	11	233	RTPJ	1471.93964886665	0.528089887640449	n/a	n/a	n/a	n/a	1128.68253968254	0.471944657955419	n/a	n/a	n/a	n/a	992.132459970888	6	4	1	0	0	0	0
216.485293946505	2.51869167947771	reward_rtpj	219.003985625982	41	1	7	10	750	250	250	250	0	0	0	0	2000	0	BLOCKED	0.75	1	6	1	distressed	At this moment	5	2	11	233	RTPJ	389.9189016819	0	9462.20252400182	-7.21164523779715	0.00163683528863854	24.826183704415	1623.58426966292	0	917.534863333539	1.3020887403174	-0.000461558984846326	35.6066837510316	1627.07071483474	0	5	1	0	0	0	0
219.988226130247	2.51866770124437	reward_rtpj	222.506893831491	42	1	7	10	750	250	250	250	0	0	0	0	2000	0	BLOCKED	0.75	-1	1	1	determined	At this moment	3	2	11	233	RTPJ	406.212611436844	0.531835205992509	n/a	n/a	n/a	n/a	1389.992	0	859.471920362398	1.30227319257024	-0.000624767895579635	31.400468844008	1429.49039200615	2	6	1	0	0	0	0
223.490939338922	2.51881756353379	reward_rtpj	226.009756902456	43	1	7	10	750	250	250	250	0	0	0	0	2000	0	BLOCKED	0.75	1	4	-1	excited	At this moment	4	2	11	233	RTPJ	606.827857255936	0.766541822721598	n/a	n/a	n/a	n/a	1301.8128342246	0.239815526518063	1627.93152278196	-0.621468619620558	0.000241299795812675	10.2001253402779	1258.55611729019	4	7	1	0	0	0	0
226.993892679691	2.51865853357313	reward_rtpj	229.512551213264	44	1	7	10	750	250	250	250	0	0	0	0	2000	0	BLOCKED	0.75	1	6	1	guilty	At this moment	5	2	11	233	RTPJ	273.917898893356	0.31585518102372	n/a	n/a	n/a	n/a	1080.64233576642	0.295157571099154	n/a	n/a	n/a	n/a	1272.72628135224	1	8	1	0	0	0	0
230.496743056297	6.02182838082314	panas_none	236.51857143712	45	5	8	10	n/a	n/a	n/a	n/a	n/a	n/a	n/a	n/a	2000	0	BLOCKED	n/a	n/a	+	0	nervous	At this moment	1	2	11	233	NONE	n/a	0	-385.434545709182	1.2440555856576	-0.000242461239828214	9.07833353989588	1144.70411985019	0	596.001241218694	0.875722949806308	-0.000418671904593959	34.469784642264	989.415833973866	0	1	0	1	0	1	0
237.502670189381	6.03791334176066	panas_none	243.540583531141	46	5	8	10	n/a	n/a	n/a	n/a	n/a	n/a	n/a	n/a	2000	0	BLOCKED	n/a	n/a	+	0	ashamed	At this moment	1	2	11	233	NONE	n/a	0	-436.385809034701	1.89970303433678	-0.000440640145528641	21.1040308334662	1586.41697877653	0	2043.66013572145	-0.859501518619637	0.000362698316468249	19.2081842578147	1625.86010760953	0	2	0	1	0	1	0
244.541413590908	6.02160799527167	panas_none	250.56302158618	47	5	8	10	n/a	n/a	n/a	n/a	n/a	n/a	n/a	n/a	2000	0	BLOCKED	n/a	n/a	+	0	excited	At this moment	1	2	11	233	NONE	n/a	0	1672.65394143518	-0.547382955305652	0.000142105141171625	11.6215128428513	1157.78152309613	0	1098.92362757418	-0.0484774827488781	0.000106829100648478	19.8120818431587	1149.63873943121	2	3	0	1	0	1	0
251.552802402973	11.9207885496616	panas_none	263.473590952635	48	5	8	10	n/a	n/a	n/a	n/a	n/a	n/a	n/a	n/a	2000	0	BLOCKED	n/a	n/a	+	0	alert	At this moment	3	2	11	233	NONE	n/a	0.0274656679151061	2449.50677020473	-1.36070078536781	0.000383203590129103	15.0645823801907	1304.05263157895	0.275941583397387	n/a	n/a	n/a	n/a	1167.35881104034	2	4	0	1	0	1	0
264.457594851017	2.51872059416769	punish_vlpfc	266.976315445185	49	4	9	10	0	0	0	0	250	250	250	750	2000	0	BLOCKED	0.25	1	4	-1	inspired	At this moment	3	2	11	233	VLPFC	341.089254140854	0	7503.18094089292	-5.40042490714855	0.0012492182482852	11.0893952555928	1726.82397003745	0	500.45140090499	1.5050528701445	-0.000494867360202764	28.0218543721592	1357.16910069178	0	1	0	0	1	0	0
267.960358131409	2.51882532119754	punish_vlpfc	270.479183452606	50	4	9	10	0	0	0	0	250	250	250	750	2000	0	BLOCKED	0.25	1	6	1	active	At this moment	2	2	11	233	VLPFC	390.028213024139	0	9248.21354442637	-7.17837565263724	0.00164294232324326	25.7820615544402	1505.83146067416	0	967.750301427411	1.26614858897414	-0.000536162343956945	14.0047734550384	1585.7809377402	0	2	0	0	1	0	0
271.46327409482	2.51873046731953	punish_vlpfc	273.98200456214	51	4	9	10	0	0	0	0	250	250	250	750	2000	0	BLOCKED	0.25	1	3	-1	hostile	At this moment	3	2	11	233	VLPFC	456.66147518158	0	4843.87579289318	-2.72421148518477	0.000646004985105745	25.9279930225365	2006.265917603	0.503458877786318	n/a	n/a	n/a	n/a	1518.45820433437	3	3	0	0	1	0	0
274.96616396451	2.51871036815641	punish_vlpfc	277.484874332666	52	4	9	10	0	0	0	0	250	250	250	750	2000	0	BLOCKED	0.25	1	1	-1	irritable	At this moment	5	2	11	233	VLPFC	706.991788625717	0	9907.00850027182	-6.79845225142569	0.00150025866588886	21.4990012981873	2321.64169787765	0	1690.81394979842	0.630704321455377	5.89469128625331e-07	45.60620392796	2227.22598001537	1	4	0	0	1	0	0
278.468997062922	2.51873469877245	punish_vlpfc	280.987731761694	53	4	9	10	0	0	0	0	250	250	250	750	2000	0	BLOCKED	0.25	-1	10	-1	jittery	At this moment	5	2	11	233	VLPFC	440.999654054642	0.662921348314607	n/a	n/a	n/a	n/a	2000.1	0	1395.36112392352	1.25371942163268	-0.000547242493069386	24.0025858344813	1988.60338201384	1	5	0	0	1	0	0
281.988472961903	2.53539371919629	punish_vlpfc	284.523866681099	54	4	9	10	0	0	0	0	250	250	250	750	2000	0	BLOCKED	0.25	1	7	1	ashamed	At this moment	2	2	11	233	VLPFC	289.703840732574	0.799001248439451	n/a	n/a	n/a	n/a	1951.96894409938	0	1570.35742393947	0.479607402404075	-5.59668862539069e-05	22.8246733045204	1930.21368178324	2	6	0	0	1	0	0
285.508059582233	2.51870120024682	punish_vlpfc	288.02676078248	55	4	9	10	0	0	0	0	250	250	250	750	2000	0	BLOCKED	0.25	-1	9	-1	determined	At this moment	3	2	11	233	VLPFC	507.787714958191	0	2472.75223273952	0.323421300338512	-0.000199472309801846	26.3867082484554	2259.62921348315	0	939.156084846404	2.15306590612194	-0.000829121851684311	23.482964199643	2082.09146810146	0	7	0	0	1	0	0
289.010789364099	2.55239654135704	punish_vlpfc	291.563185905457	56	4	9	10	0	0	0	0	250	250	250	750	2000	0	BLOCKED	0.25	1	4	-1	nervous	At this moment	3	2	11	233	VLPFC	273.915783166885	0	1511.53751812065	0.0383953061611931	-8.30400251791037e-05	8.91748934213662	1221.7265917603	0	940.149458616102	0.954239332161031	-0.000430796703129285	32.5822082168771	1384.18601076095	1	8	0	0	1	0	0
292.563637959957	6.02174375295635	panas_none	298.585381712913	57	5	10	10	n/a	n/a	n/a	n/a	n/a	n/a	n/a	n/a	2000	0	BLOCKED	n/a	n/a	+	0	inspired	At this moment	2	2	11	233	NONE	n/a	0	-6151.46761491471	6.97816681219374	-0.00161155199192521	29.5817369161933	1310.28464419476	0	632.256645237676	0.451459445609471	-0.000100543175422159	66.2565100080956	931.893159108378	1	1	0	1	0	0	1
299.58610598731	6.02159565377235	panas_none	305.607701641083	58	5	10	10	n/a	n/a	n/a	n/a	n/a	n/a	n/a	n/a	2000	0	BLOCKED	n/a	n/a	+	0	scared	At this moment	1	2	11	233	NONE	n/a	0	5563.50088482144	-3.57131508197488	0.000853065140185826	14.1249336447808	1871.08114856429	0	1126.20539818061	1.32939797676802	-0.000473881130561401	20.1525608168592	1852.91544965411	0	2	0	1	0	0	1
306.608505254507	6.02157449674604	panas_none	312.630079751253	59	5	10	10	n/a	n/a	n/a	n/a	n/a	n/a	n/a	n/a	2000	0	BLOCKED	n/a	n/a	+	0	guilty	At this moment	1	2	11	233	NONE	n/a	0.566791510611735	n/a	n/a	n/a	n/a	1248	0	1164.14059958348	0.408302568640058	-0.000272342059100007	20.1199721247477	1276.52574942352	5	3	0	1	0	0	1
313.614091054916	8.47363961362839	panas_none	322.087730668545	60	5	10	10	n/a	n/a	n/a	n/a	n/a	n/a	n/a	n/a	2000	0	BLOCKED	n/a	n/a	+	0	hostile	At this moment	4	2	11	233	NONE	n/a	0	3693.01078843358	-2.34568428488602	0.000606740628752186	10.7161775869956	1475.04494382022	0.517294388931591	n/a	n/a	n/a	n/a	1298.1321656051	4	4	0	1	0	0	1
323.071997619152	2.51854217004779	reward_vlpfc	325.5905397892	61	2	11	10	0	0	0	0	250	250	250	750	2000	0	BLOCKED	0.75	1	2	-1	jittery	At this moment	1	2	11	233	VLPFC	457.447809934616	0.212234706616729	-136.805369144555	1.49404298716567	-0.000373433914523269	15.5411555524054	1332.33122028526	0.164488854727133	708.741363294317	1.47807266448761	-0.000700136044835062	23.3957273570344	1357.66053357866	2	1	1	0	0	0	0
326.574573660135	2.51891629600522	reward_vlpfc	329.093489956141	62	2	11	10	0	0	0	0	250	250	250	750	2000	0	BLOCKED	0.75	-1	1	1	attentive	At this moment	5	2	11	233	VLPFC	274.056477069855	0	6013.28053686907	-4.42902895261622	0.00101706840514714	22.5440545218329	1252.13358302122	0	890.864694617379	0.831148658172546	-0.000390233471485611	42.0663388540334	1261.02382782475	0	2	1	0	0	0	0
330.094218109608	2.51873046708107	reward_vlpfc	332.612948576689	63	2	11	10	0	0	0	0	250	250	250	750	2000	0	BLOCKED	0.75	1	10	1	nervous	At this moment	1	2	11	233	VLPFC	373.661158561707	0	15142.9885119955	-12.6139018261018	0.00287955508851655	35.43922930061	1505.49188514357	0	1098.10340726182	0.813749793138897	-0.000185281473060515	21.5154848521484	1630.01614142967	0	3	1	0	0	0	0
333.597101984739	2.51866875958444	reward_vlpfc	336.115770744324	64	2	11	10	0	0	0	0	250	250	250	750	2000	0	BLOCKED	0.75	-1	0	1	guilty	At this moment	5	2	11	233	VLPFC	274.233843564987	0	4854.77513985473	-3.35519193865518	0.000806348384102218	22.1314930630122	1407.97378277154	0	1137.58700313548	0.638736315810625	-0.000302676080829587	29.8371023232164	1419.89085318985	0	4	1	0	0	0	0
337.09995377183	2.51871389436718	reward_vlpfc	339.618667666197	65	2	11	10	0	0	0	0	250	250	250	750	2000	0	BLOCKED	0.75	1	10	1	distressed	At this moment	2	2	11	233	VLPFC	339.70100235939	0	7653.78562977165	-6.15847797507558	0.00148612655885072	17.7697673409847	1345.00124843945	0	987.017506633185	0.469657106618557	-0.000199287882118451	17.165326045552	1214.35126825519	0	5	1	0	0	0	0
340.602725162506	2.51871142578125	reward_vlpfc	343.121436588287	66	2	11	10	0	0	0	0	250	250	250	750	2000	0	BLOCKED	0.75	1	9	1	scared	At this moment	4	2	11	233	VLPFC	656.942792415619	0	5474.95336411625	-3.72416269456986	0.000831237383478721	19.0536069994913	1363.30836454432	0	1251.02931317606	0.145816377015227	3.52291304479003e-05	14.249250924364	1405.34204458109	0	6	1	0	0	0	0
344.105648883343	2.51866382265092	reward_vlpfc	346.624312705994	67	2	11	10	0	0	0	0	250	250	250	750	2000	0	BLOCKED	0.75	-1	6	-1	interested	At this moment	1	2	11	233	VLPFC	324.265208721161	0	4065.95682565894	-2.67710045458402	0.000643638773899248	11.703794753128	1316.59176029963	0	995.049556697212	0.799564633159534	-0.000344289533741639	18.1332987918803	1378.45964642583	0	7	1	0	0	0	0
347.608419568539	2.51865112853045	reward_vlpfc	350.127070697069	68	2	11	10	0	0	0	0	250	250	250	750	2000	0	BLOCKED	0.75	1	9	1	afraid	At this moment	5	2	11	233	VLPFC	640.46466422081	0.686641697877653	n/a	n/a	n/a	n/a	1864.57768924303	0	978.868817412613	0.940251913043886	-0.000155184060845301	21.8945499059656	1645.03151421983	2	8	1	0	0	0	0
351.115359593153	6.01744182968139	panas_none	357.132801422834	69	5	12	10	n/a	n/a	n/a	n/a	n/a	n/a	n/a	n/a	2000	0	BLOCKED	n/a	n/a	+	0	nervous	At this moment	1	2	11	233	NONE	n/a	0	-713.255787707052	1.90158884289173	-0.000447202571312063	20.9228575065132	1281.35455680399	0	1083.15453483868	0.836241990800841	-0.000445100842018701	85.360810291147	1416.97002305919	4	1	0	1	0	1	1
358.133674501657	6.02151666784289	panas_none	364.1551911695	70	5	12	10	n/a	n/a	n/a	n/a	n/a	n/a	n/a	n/a	2000	0	BLOCKED	n/a	n/a	+	0	upset	At this moment	1	2	11	233	NONE	n/a	0	2457.42601976317	-1.18756514733777	0.000318089574171244	12.383533077894	1383.93508114856	0.445810914681015	n/a	n/a	n/a	n/a	1353.69764216366	7	2	0	1	0	1	1
365.156160512447	6.02137703156473	panas_none	371.177537544012	71	5	12	10	n/a	n/a	n/a	n/a	n/a	n/a	n/a	n/a	2000	0	BLOCKED	n/a	n/a	+	0	scared	At this moment	2	2	11	233	NONE	n/a	0.282147315855181	n/a	n/a	n/a	n/a	1283.35826086957	0	1338.68884953212	-0.023430973937041	-1.22833477747024e-05	24.4235578384328	1308.27056110684	5	3	0	1	0	1	1
372.178449410439	9.10735378503801	panas_none	381.285803195477	72	5	12	10	n/a	n/a	n/a	n/a	n/a	n/a	n/a	n/a	2000	0	BLOCKED	n/a	n/a	+	0	guilty	At this moment	2	2	11	233	NONE	n/a	0	6873.55832837585	-4.25586118817279	0.000976800837807411	18.2879500487476	2295.40574282147	0.615680245964643	n/a	n/a	n/a	n/a	2105.764	10	4	0	1	0	1	1
382.288329340935	2.53408410120011	reward_vlpfc	384.822413442135	73	2	13	10	0	0	0	0	250	250	250	750	2000	0	BLOCKED	0.75	1	7	1	ashamed	At this moment	4	2	11	233	VLPFC	555.072901964188	0.800249687890137	n/a	n/a	n/a	n/a	2225.925	0	1391.82303869822	1.41391718952408	-0.000479841648177608	20.9954674500131	2178.99846272098	1	1	1	0	0	0	0
385.822799204826	2.51869767403599	reward_vlpfc	388.341496878862	74	2	13	10	0	0	0	0	250	250	250	750	2000	0	BLOCKED	0.75	-1	1	1	upset	At this moment	3	2	11	233	VLPFC	339.68442940712	0.50936329588015	n/a	n/a	n/a	n/a	2122.15012722646	0.152190622598002	1637.0846270289	1.23606039399105	-0.000430045428987229	32.1451314284879	2280.39437896645	5	2	1	0	0	0	0
389.325651697159	2.51873081994057	reward_vlpfc	391.844382517099	75	2	13	10	0	0	0	0	250	250	250	750	2000	0	BLOCKED	0.75	1	7	1	enthusiastic	At this moment	3	2	11	233	VLPFC	1375.01168036461	0	8221.70556376935	-5.72721665313951	0.00122924582009275	28.2931982540115	1680.93258426966	0	1700.1873714796	-0.293802538422007	0.000353063624097791	35.4867183094444	1754.12990007686	2	3	1	0	0	0	0
392.828409335613	2.51867016983033	reward_vlpfc	395.347079505444	76	2	13	10	0	0	0	0	250	250	250	750	2000	0	BLOCKED	0.75	1	7	1	proud	At this moment	2	2	11	233	VLPFC	1041.49486899376	0.662921348314607	n/a	n/a	n/a	n/a	1879.27037037037	0.230591852421214	989.527079907578	0.62137992568986	0.000109964858179457	37.1469040391867	1585.67232767233	7	4	1	0	0	0	0
396.331279459	2.51883166813849	reward_vlpfc	398.850111127138	77	2	13	10	0	0	0	0	250	250	250	750	2000	0	BLOCKED	0.75	-1	6	-1	afraid	At this moment	5	2	11	233	VLPFC	440.196745872498	0.413233458177278	n/a	n/a	n/a	n/a	2195.70425531915	0.330514988470407	n/a	n/a	n/a	n/a	1919.72215843858	3	5	1	0	0	0	0
399.834185548782	2.51869097423554	reward_vlpfc	402.352876523018	78	2	13	10	0	0	0	0	250	250	250	750	2000	0	BLOCKED	0.75	1	8	1	distressed	At this moment	5	2	11	233	VLPFC	1057.44195699692	0.99250936329588	n/a	n/a	n/a	n/a	1935.33333333333	0.1076095311299	2041.12160876434	1.29115413154055	-0.000554815945836956	35.1679260136613	2666.32730404823	5	6	1	0	0	0	0
403.337051793337	2.51888315033915	reward_vlpfc	405.855934943676	79	2	13	10	0	0	0	0	250	250	250	750	2000	0	BLOCKED	0.75	-1	7	-1	upset	At this moment	4	2	11	233	VLPFC	1471.46820068359	1	n/a	n/a	n/a	n/a	n/a	1	n/a	n/a	n/a	n/a	n/a	4	7	1	0	0	0	0
406.856475857496	2.51879429078105	reward_vlpfc	409.375270148277	80	2	13	10	0	0	0	0	250	250	250	750	2000	0	BLOCKED	0.75	-1	3	1	nervous	At this moment	4	2	11	233	VLPFC	357.321255922318	1	n/a	n/a	n/a	n/a	n/a	1	n/a	n/a	n/a	n/a	n/a	0	8	1	0	0	0	0
410.376085397959	6.02150820493694	panas_none	416.397593602896	81	5	14	10	n/a	n/a	n/a	n/a	n/a	n/a	n/a	n/a	2000	0	BLOCKED	n/a	n/a	+	0	determined	At this moment	4	2	11	233	NONE	n/a	1	n/a	n/a	n/a	n/a	n/a	1	n/a	n/a	n/a	n/a	n/a	4	1	0	1	0	1	1
417.39835560751	6.02162915229798	panas_none	423.419984759808	82	5	14	10	n/a	n/a	n/a	n/a	n/a	n/a	n/a	n/a	2000	0	BLOCKED	n/a	n/a	+	0	proud	At this moment	2	2	11	233	NONE	n/a	1	n/a	n/a	n/a	n/a	n/a	1	n/a	n/a	n/a	n/a	n/a	0	2	0	1	0	1	1
424.420801419973	6.02164889907834	panas_none	430.442450319052	83	5	14	10	n/a	n/a	n/a	n/a	n/a	n/a	n/a	n/a	2000	0	BLOCKED	n/a	n/a	+	0	hostile	At this moment	1	2	11	233	NONE	n/a	0.573033707865168	n/a	n/a	n/a	n/a	1214.59356725146	0.251345119139124	n/a	n/a	n/a	n/a	1385.47741273101	25	3	0	1	0	1	1
431.431334431887	14.3235490441322	panas_none	445.754883476019	84	5	14	10	n/a	n/a	n/a	n/a	n/a	n/a	n/a	n/a	2000	0	BLOCKED	n/a	n/a	+	0	inspired	At this moment	3	2	11	233	NONE	n/a	1	n/a	n/a	n/a	n/a	n/a	0.796310530361261	n/a	n/a	n/a	n/a	1442.8	12	4	0	1	0	1	1
446.755571783781	2.51913597631454	punish_rtpj	449.274707760096	85	3	15	10	750	250	250	250	0	0	0	0	2000	0	BLOCKED	0.25	1	1	-1	excited	At this moment	5	2	11	233	RTPJ	408.426691532135	1	n/a	n/a	n/a	n/a	n/a	1	n/a	n/a	n/a	n/a	n/a	0	1	0	0	1	0	0
450.274993379593	2.53549033641815	punish_rtpj	452.810483716011	86	3	15	10	750	250	250	250	0	0	0	0	2000	0	BLOCKED	0.25	1	1	-1	enthusiastic	At this moment	1	2	11	233	RTPJ	438.717166423798	1	n/a	n/a	n/a	n/a	n/a	1	n/a	n/a	n/a	n/a	n/a	0	2	0	0	1	0	0
453.794716815233	2.51868074846266	punish_rtpj	456.313397563696	87	3	15	10	750	250	250	250	0	0	0	0	2000	0	BLOCKED	0.25	1	10	1	nervous	At this moment	5	2	11	233	RTPJ	523.208698749542	1	n/a	n/a	n/a	n/a	n/a	1	n/a	n/a	n/a	n/a	n/a	0	3	0	0	1	0	0
457.297668745518	2.51860035157205	punish_rtpj	459.81626909709	88	3	15	10	750	250	250	250	0	0	0	0	2000	0	BLOCKED	0.25	1	8	1	determined	At this moment	3	2	11	233	RTPJ	341.028604030609	0.976279650436954	n/a	n/a	n/a	n/a	1890.84210526316	1	n/a	n/a	n/a	n/a	n/a	0	4	0	0	1	0	0
460.80047046113	2.51850902390481	punish_rtpj	463.318979485035	89	3	15	10	750	250	250	250	0	0	0	0	2000	0	BLOCKED	0.25	1	2	-1	ashamed	At this moment	5	2	11	233	RTPJ	406.612126111984	0	7308.03085350154	-5.18252036941874	0.00121503344626032	42.2090203924175	1847.17228464419	0	1331.75988616142	0.924929227097993	-0.000367471343136978	54.6763688533556	1802.75710991545	0	5	0	0	1	0	0
464.303241498947	2.51867757463452	punish_rtpj	466.821919073582	90	3	15	10	750	250	250	250	0	0	0	0	2000	0	BLOCKED	0.25	1	4	-1	hostile	At this moment	1	2	11	233	RTPJ	524.409710884094	0.428214731585518	n/a	n/a	n/a	n/a	1825.69213973799	0	1102.40698124347	1.61214010780864	-0.000729124572000181	46.242755830712	1845.53266717909	1	6	0	0	1	0	0
467.806003369093	2.51875550293926	punish_rtpj	470.324758872032	91	3	15	10	750	250	250	250	0	0	0	0	2000	0	BLOCKED	0.25	-1	6	-1	scared	At this moment	4	2	11	233	RTPJ	324.454210758209	0.302122347066167	n/a	n/a	n/a	n/a	2206.88908765653	0	1208.72528442962	1.44069472073272	-0.000437007919086242	44.1657518029807	2055.42966948501	2	7	0	0	1	0	0
471.308860797882	2.5187195360661	punish_rtpj	473.827580333948	92	3	15	10	750	250	250	250	0	0	0	0	2000	0	BLOCKED	0.25	1	0	-1	proud	At this moment	2	2	11	233	RTPJ	490.129378557205	0.987515605493134	n/a	n/a	n/a	n/a	2000	1	n/a	n/a	n/a	n/a	n/a	36	8	0	0	1	0	0
474.828327881336	6.02164219903943	panas_none	480.849970080376	93	5	16	10	n/a	n/a	n/a	n/a	n/a	n/a	n/a	n/a	2000	0	BLOCKED	n/a	n/a	+	0	excited	At this moment	4	2	11	233	NONE	n/a	1	n/a	n/a	n/a	n/a	n/a	1	n/a	n/a	n/a	n/a	n/a	12	1	0	1	0	0	0
481.8341851964	6.02177478289605	panas_none	487.855959979296	94	5	16	10	n/a	n/a	n/a	n/a	n/a	n/a	n/a	n/a	2000	0	BLOCKED	n/a	n/a	+	0	jittery	At this moment	1	2	11	233	NONE	n/a	1	n/a	n/a	n/a	n/a	n/a	1	n/a	n/a	n/a	n/a	n/a	0	2	0	1	0	0	0
488.85647374177	6.02151807832718	panas_none	494.877991820097	95	5	16	10	n/a	n/a	n/a	n/a	n/a	n/a	n/a	n/a	2000	0	BLOCKED	n/a	n/a	+	0	interested	At this moment	4	2	11	233	NONE	n/a	1	n/a	n/a	n/a	n/a	n/a	1	n/a	n/a	n/a	n/a	n/a	0	3	0	1	0	0	0
495.862066594362	14.445408772707	panas_none	510.307475367069	96	5	16	10	n/a	n/a	n/a	n/a	n/a	n/a	n/a	n/a	2000	0	BLOCKED	n/a	n/a	+	0	determined	At this moment	5	2	11	233	NONE	n/a	1	n/a	n/a	n/a	n/a	n/a	1	n/a	n/a	n/a	n/a	n/a	16	4	0	1	0	0	0
