onset	duration	trial_type	offset	trial	block	blockCntr	frequency	amplitude_1	amplitude_2	amplitude_3	amplitude_4	amplitude_5	amplitude_6	amplitude_7	amplitude_8	transition	sham	mode	rewardFraction	guess	outcome	correct	word	when	answer	runNr	scanNr	subjectNr	target	reactionTime	outcomeEyeClosed	outcomeParms_1	outcomeParms_2	outcomeParms_3	outcomeSigma	outcomePupilArea	guessEyeClosed	guessParms_1	guessParms_2	guessParms_3	guessSigma	guessPupilArea	nrBlinks	trialInBlock	isReward	isPanas	isPunish	beforePanasReward	beforePanasVLPFC
20.5123971196413	2.56410306143761	punish_rtpj	23.0765001810789	1	3	1	10	750	250	250	250	0	0	0	0	2000	0	BLOCKED	0.25	1	4	-1	alert	At this moment	1	2	8	218	RTPJ	1371.35927736759	0	-2185.63930997765	3.18629815980779	-0.000682112392542014	20.222919386811	1461.40823970037	0.0868562644119908	930.889200519332	-0.172427016689362	0.000248247574700563	24.5944460286312	1004.23316498317	0	1	0	0	1	0	0
24.0606324321032	2.78593489778042	punish_rtpj	26.8465673298836	2	3	1	10	750	250	250	250	0	0	0	0	2000	0	BLOCKED	0.25	1	0	-1	excited	At this moment	3	2	8	218	RTPJ	1543.01129674911	0.476903870162297	n/a	n/a	n/a	n/a	2287.39856801909	0	1071.25187863501	1.48622567414334	-0.000516170863408425	31.3465279413603	1901.34050730208	1	2	0	0	1	0	0
27.85240348804	2.63022079789638	punish_rtpj	30.4826242859364	3	3	1	10	750	250	250	250	0	0	0	0	2000	0	BLOCKED	0.25	1	2	-1	active	At this moment	2	2	8	218	RTPJ	324.157660484314	0.634207240948814	n/a	n/a	n/a	n/a	1855.34129692833	0.230591852421214	1258.30529355352	1.11809383787443	-0.000412406124619784	49.4277189140816	1822.40759240759	2	3	0	0	1	0	0
31.4873645114899	2.59817817080021	punish_rtpj	34.0855426822901	4	3	1	10	750	250	250	250	0	0	0	0	2000	0	BLOCKED	0.25	1	7	1	afraid	At this moment	3	2	8	218	RTPJ	1054.69683599472	0.448189762796504	n/a	n/a	n/a	n/a	1722.46606334842	0.253651037663336	n/a	n/a	n/a	n/a	1850.25952626159	2	4	0	0	1	0	0
35.075043874383	2.76341538834572	punish_rtpj	37.8384592627287	5	3	1	10	750	250	250	250	0	0	0	0	2000	0	BLOCKED	0.25	1	3	-1	inspired	At this moment	2	2	8	218	RTPJ	489.777819752693	0.464419475655431	n/a	n/a	n/a	n/a	2091.21678321678	0.252113758647194	n/a	n/a	n/a	n/a	1924.26824254882	2	5	0	0	1	0	0
38.8440485891104	2.5474147734642	punish_rtpj	41.3914633625746	6	3	1	10	750	250	250	250	0	0	0	0	2000	0	BLOCKED	0.25	-1	8	-1	guilty	At this moment	5	2	8	218	RTPJ	362.200412631035	0	7301.4737821896	-5.27571785050561	0.00125065100742817	28.562875075354	1804.71036204744	0.265949269792467	n/a	n/a	n/a	n/a	1603.88376963351	1	6	0	0	1	0	0
42.38046877563	2.66387382531166	punish_rtpj	45.0443426009417	7	3	1	10	750	250	250	250	0	0	0	0	2000	0	BLOCKED	0.25	1	9	1	determined	At this moment	2	2	8	218	RTPJ	1617.19937050343	0.379525593008739	n/a	n/a	n/a	n/a	1827.03621730382	0	913.309839933079	1.39135508732118	-0.000482695034676979	40.0211898338037	1679.36971560338	1	7	0	0	1	0	0
46.0474304648638	2.54984253907203	punish_rtpj	48.5972730039358	8	3	1	10	750	250	250	250	0	0	0	0	2000	0	BLOCKED	0.25	1	4	-1	hostile	At this moment	2	2	8	218	RTPJ	629.841735124588	0.852684144818976	n/a	n/a	n/a	n/a	1744.79661016949	0	1132.94514767908	1.28043254352538	-0.000566132562168737	16.870867018171	1738.58724058417	2	8	0	0	1	0	0
49.621839805603	6.18126117575169	panas_none	55.8031009813547	9	5	2	10	n/a	n/a	n/a	n/a	n/a	n/a	n/a	n/a	2000	0	BLOCKED	n/a	n/a	+	0	active	At this moment	5	2	8	218	NONE	n/a	0.205992509363296	-1674.39980040075	2.9031443724992	-0.00070162220104804	13.0683094188787	1303.43238993711	0.162182936202921	-586.891675965566	3.87042475567811	-0.00176262692357953	39.9347153002433	1345.83669724771	7	1	0	1	0	0	0
56.7873351385593	6.32170591700077	panas_none	63.1090410555601	10	5	2	10	n/a	n/a	n/a	n/a	n/a	n/a	n/a	n/a	2000	0	BLOCKED	n/a	n/a	+	0	jittery	At this moment	1	2	8	218	NONE	n/a	0.408239700374532	n/a	n/a	n/a	n/a	1110.60548523207	0	2057.96710662256	-1.05627535346932	0.000449944915137911	60.6613134940167	1548.16448885473	3	2	0	1	0	0	0
64.0976578850746	6.11718755769731	panas_none	70.2148454427719	11	5	2	10	n/a	n/a	n/a	n/a	n/a	n/a	n/a	n/a	2000	0	BLOCKED	n/a	n/a	+	0	inspired	At this moment	4	2	8	218	NONE	n/a	0.546816479400749	n/a	n/a	n/a	n/a	1341.00826446281	0	1811.60509080479	-0.770913689638677	0.000351957165360508	67.6195396620541	1458.66564181399	5	3	0	1	0	0	0
71.2220423486233	9.26774005520343	panas_none	80.4897824038267	12	5	2	10	n/a	n/a	n/a	n/a	n/a	n/a	n/a	n/a	2000	0	BLOCKED	n/a	n/a	+	0	nervous	At this moment	3	2	8	218	NONE	n/a	0.49812734082397	n/a	n/a	n/a	n/a	1656.66915422886	0.234435049961568	1121.89137192911	0.293528781692377	0.000158201918344447	41.2936203698147	1416.47389558233	7	4	0	1	0	0	0
81.4934422119856	2.63279807305337	punish_vlpfc	84.1262402850389	13	4	3	10	0	0	0	0	250	250	250	750	2000	0	BLOCKED	0.25	1	2	-1	upset	At this moment	5	2	8	218	VLPFC	735.385891318321	0.430711610486891	n/a	n/a	n/a	n/a	1471.20614035088	0.207532667179093	608.06223706995	1.65681291148879	-0.000710698901368537	23.8569000708285	1485.87584869059	2	1	0	0	1	0	0
85.1318306692839	2.74739918768405	punish_vlpfc	87.8792298569679	14	4	3	10	0	0	0	0	250	250	250	750	2000	0	BLOCKED	0.25	-1	7	-1	determined	At this moment	4	2	8	218	VLPFC	554.858158230782	0.440699126092385	n/a	n/a	n/a	n/a	1694.01339285714	0.230591852421214	740.034322316036	1.31965337416342	-0.000442538307757274	29.6009341781873	1465.56043956044	2	2	0	0	1	0	0
88.8706595095396	2.71176692318916	punish_vlpfc	91.5824264327288	15	4	3	10	0	0	0	0	250	250	250	750	2000	0	BLOCKED	0.25	1	4	-1	strong	At this moment	1	2	8	218	VLPFC	693.664995193481	0.460674157303371	n/a	n/a	n/a	n/a	1577.41666666667	0.270561106840892	n/a	n/a	n/a	n/a	1669.47207586934	2	3	0	0	1	0	0
92.58675198102	2.68176982533932	punish_vlpfc	95.2685218063593	16	4	3	10	0	0	0	0	250	250	250	750	2000	0	BLOCKED	0.25	1	4	-1	ashamed	At this moment	3	2	8	218	VLPFC	1059.523452878	0.500624219725343	n/a	n/a	n/a	n/a	1768.0625	0.245196003074558	1022.85440183512	1.02391026181158	-0.000292111190591547	17.5653408303295	1689.06822810591	2	4	0	0	1	0	0
96.2745677713156	2.61377299463749	punish_vlpfc	98.8883407659531	17	4	3	10	0	0	0	0	250	250	250	750	2000	0	BLOCKED	0.25	1	2	-1	enthusiastic	At this moment	3	2	8	218	VLPFC	630.956356406212	0.789013732833958	n/a	n/a	n/a	n/a	1888.43195266272	0.269792467332821	n/a	n/a	n/a	n/a	1779.61052631579	2	5	0	0	1	0	0
99.8723182182312	2.60214017152786	punish_vlpfc	102.474458389759	18	4	3	10	0	0	0	0	250	250	250	750	2000	0	BLOCKED	0.25	-1	3	1	nervous	At this moment	1	2	8	218	VLPFC	446.26880466938	0.374531835205993	n/a	n/a	n/a	n/a	1670.11576846307	0.230591852421214	1117.05920588586	1.42282436574613	-0.000626033155575142	31.991009699765	1823.81218781219	2	6	0	0	1	0	0
103.462342481732	2.56485625052453	punish_vlpfc	106.027198732257	19	4	3	10	0	0	0	0	250	250	250	750	2000	0	BLOCKED	0.25	-1	4	1	attentive	At this moment	4	2	8	218	VLPFC	583.332657575607	0.397003745318352	n/a	n/a	n/a	n/a	1380.95859213251	0	1088.02861508826	0.854402476649098	-0.000271309318822193	25.152764516156	1590.87009992314	2	7	0	0	1	0	0
107.03071678865	2.69984001779557	punish_vlpfc	109.730556806445	20	4	3	10	0	0	0	0	250	250	250	750	2000	0	BLOCKED	0.25	1	2	-1	distressed	At this moment	1	2	8	218	VLPFC	876.733331084251	0.48314606741573	n/a	n/a	n/a	n/a	1494.24637681159	0.230591852421214	893.239130428049	1.08851547599409	-0.000443502756158867	17.7462222452343	1471.45854145854	2	8	0	0	1	0	0
110.718980049372	6.4173126308918	panas_none	117.136292680264	21	5	4	10	n/a	n/a	n/a	n/a	n/a	n/a	n/a	n/a	2000	0	BLOCKED	n/a	n/a	+	0	active	At this moment	5	2	8	218	NONE	n/a	0	181.28649090098	0.582147433033013	-9.18082515860932e-05	16.382028054965	994.068664169788	0	668.226042215583	0.769994352551922	-0.000441822108671269	48.2938907327159	940.973097617217	3	1	0	1	0	0	1
118.141105897546	6.31810182225705	panas_none	124.459207719803	22	5	4	10	n/a	n/a	n/a	n/a	n/a	n/a	n/a	n/a	2000	0	BLOCKED	n/a	n/a	+	0	determined	At this moment	5	2	8	218	NONE	n/a	0.15605493133583	-9242.93041141514	9.75594205343517	-0.00224967034142949	32.9985696091536	1247.08579881657	0.02152190622598	1377.7259986144	-0.483276459576408	0.000319292350328467	36.0718136809758	1239.18538884525	4	2	0	1	0	0	1
125.459760975361	6.25500812602044	panas_none	131.714769101381	23	5	4	10	n/a	n/a	n/a	n/a	n/a	n/a	n/a	n/a	2000	0	BLOCKED	n/a	n/a	+	0	alert	At this moment	5	2	8	218	NONE	n/a	0.373283395755306	n/a	n/a	n/a	n/a	1567.97609561753	0.335895465026902	n/a	n/a	n/a	n/a	1493.88773148148	5	3	0	1	0	0	1
132.717290663004	8.33884696471691	panas_none	141.056137627721	24	5	4	10	n/a	n/a	n/a	n/a	n/a	n/a	n/a	n/a	2000	0	BLOCKED	n/a	n/a	+	0	nervous	At this moment	2	2	8	218	NONE	n/a	0.15980024968789	4166.21567789584	-2.05762318880064	0.000384370547107326	13.2308422561022	1584.76820208024	0.647194465795542	n/a	n/a	n/a	n/a	1611.33769063181	6	4	0	1	0	0	1
142.045199106812	2.76354832482338	punish_vlpfc	144.808747431636	25	4	5	10	0	0	0	0	250	250	250	750	2000	0	BLOCKED	0.25	1	3	-1	active	At this moment	2	2	8	218	VLPFC	225.715556025505	0.444444444444444	n/a	n/a	n/a	n/a	1369.45168539326	0.234435049961568	677.685456613747	1.0835175908921	-0.000458900256656247	21.0219645237923	1175.34036144578	2	1	0	0	1	0	0
145.813901981831	2.64804063272476	punish_vlpfc	148.461942614555	26	4	5	10	0	0	0	0	250	250	250	750	2000	0	BLOCKED	0.25	1	3	-1	strong	At this moment	3	2	8	218	VLPFC	641.293313145638	0.841448189762796	n/a	n/a	n/a	n/a	1398.49606299213	0.230591852421214	801.635654258789	0.984439338253045	-0.000407647061465641	32.3235249270783	1324.07192807193	2	2	0	0	1	0	0
149.462629864335	2.65208620345592	punish_vlpfc	152.114716067791	27	4	5	10	0	0	0	0	250	250	250	750	2000	0	BLOCKED	0.25	1	1	-1	afraid	At this moment	1	2	8	218	VLPFC	857.211768507957	0.377028714107366	n/a	n/a	n/a	n/a	1434.44088176353	0.250576479631053	n/a	n/a	n/a	n/a	1305.61846153846	2	3	0	0	1	0	0
153.11928633213	2.54840245270731	punish_vlpfc	155.667688784838	28	4	5	10	0	0	0	0	250	250	250	750	2000	0	BLOCKED	0.25	1	4	-1	scared	At this moment	1	2	8	218	VLPFC	310.113292217255	0.850187265917603	n/a	n/a	n/a	n/a	1480.06666666667	0.230591852421214	1135.30253798648	0.584482902508817	-0.000177183495320758	36.6455734761377	1519.13086913087	2	4	0	0	1	0	0
156.672787268877	2.71461324477198	punish_vlpfc	159.387400513649	29	4	5	10	0	0	0	0	250	250	250	750	2000	0	BLOCKED	0.25	-1	4	1	guilty	At this moment	3	2	8	218	VLPFC	308.32305753231	0.49063670411985	n/a	n/a	n/a	n/a	1288.62990196078	0.230591852421214	815.647678736278	0.813000594780812	-0.000247022967937061	32.4097409852802	1321.63436563437	2	5	0	0	1	0	0
160.39149051404	2.6157525844574	punish_vlpfc	163.007243098497	30	4	5	10	0	0	0	0	250	250	250	750	2000	0	BLOCKED	0.25	-1	9	-1	attentive	At this moment	2	2	8	218	VLPFC	533.279782652855	0.905118601747815	n/a	n/a	n/a	n/a	1456.51315789474	0	669.852997458441	1.40453358759029	-0.000568746621835104	41.5146677225962	1374.34204458109	2	6	0	0	1	0	0
164.007704673648	2.6860862057209	punish_vlpfc	166.693790879369	31	4	5	10	0	0	0	0	250	250	250	750	2000	0	BLOCKED	0.25	-1	3	1	distressed	At this moment	5	2	8	218	VLPFC	300.332059264183	0.535580524344569	n/a	n/a	n/a	n/a	1226.59408602151	0.234435049961568	930.298004947619	1.09130825080267	-0.000570319257561846	39.8192069144149	1374.64558232932	2	7	0	0	1	0	0
167.693992576003	2.58598574519158	punish_vlpfc	170.279978321195	32	4	5	10	0	0	0	0	250	250	250	750	2000	0	BLOCKED	0.25	-1	10	-1	upset	At this moment	5	2	8	218	VLPFC	1358.15977835655	0.430711610486891	n/a	n/a	n/a	n/a	1509.97149122807	0.25826287471176	n/a	n/a	n/a	n/a	1516.08497409326	2	8	0	0	1	0	0
171.285634644866	6.19957291066649	panas_none	177.485207555532	33	5	6	10	n/a	n/a	n/a	n/a	n/a	n/a	n/a	n/a	2000	0	BLOCKED	n/a	n/a	+	0	guilty	At this moment	3	2	8	218	NONE	n/a	0	527.106002525783	0.559559072238891	-0.000120955358625039	9.37921833525794	1162.47565543071	0.12913143735588	-119.320941628042	2.99891299310487	-0.00152770631853365	68.6857419688764	1187.14298323036	3	1	0	1	0	0	1
178.473499272346	6.25095373988154	panas_none	184.724453012228	34	5	6	10	n/a	n/a	n/a	n/a	n/a	n/a	n/a	n/a	2000	0	BLOCKED	n/a	n/a	+	0	scared	At this moment	1	2	8	218	NONE	n/a	0	462.911287601099	0.414320582250767	-7.6187632042319e-05	11.5845893824498	992.973782771536	0	1347.74378938465	-0.515396158951872	0.0001563515940212	15.5992517603578	1055.58416602613	2	2	0	1	0	0	1
185.712982040167	6.33417162060738	panas_none	192.047153660774	35	5	6	10	n/a	n/a	n/a	n/a	n/a	n/a	n/a	n/a	2000	0	BLOCKED	n/a	n/a	+	0	irritable	At this moment	1	2	8	218	NONE	n/a	0	-2624.73680224642	3.13570362598815	-0.000686111281053514	11.1549900091087	902.8177278402	0	776.249892889382	0.286851985261095	-0.000153872405220608	24.4985727928049	887.099154496541	4	3	0	1	0	0	1
193.038122443438	13.9380392609835	panas_none	206.976161704421	36	5	6	10	n/a	n/a	n/a	n/a	n/a	n/a	n/a	n/a	2000	0	BLOCKED	n/a	n/a	+	0	determined	At this moment	2	2	8	218	NONE	n/a	0	2507.69675757432	-0.742373209595099	0.000113805191024941	13.0441382337989	1456.91885143571	0.309761721752498	n/a	n/a	n/a	n/a	1390.90311804009	10	4	0	1	0	0	1
207.96001538825	2.68561405181885	reward_rtpj	210.645629440069	37	1	7	10	750	250	250	250	0	0	0	0	2000	0	BLOCKED	0.75	1	2	-1	hostile	At this moment	5	2	8	218	RTPJ	495.366793513298	0.645443196004994	n/a	n/a	n/a	n/a	1656.07394366197	0.259031514219831	n/a	n/a	n/a	n/a	1699.30497925311	2	1	1	0	0	0	0
211.629718319297	2.53545331168175	reward_rtpj	214.165171630979	38	1	7	10	750	250	250	250	0	0	0	0	2000	0	BLOCKED	0.75	1	6	1	nervous	At this moment	2	2	8	218	RTPJ	314.791809797287	0.414481897627965	n/a	n/a	n/a	n/a	1229.20469083156	0.284396617986165	n/a	n/a	n/a	n/a	1297.26745435016	2	2	1	0	0	0	0
215.15120589602	2.61674378979205	reward_rtpj	217.767949685812	39	1	7	10	750	250	250	250	0	0	0	0	2000	0	BLOCKED	0.75	1	9	1	active	At this moment	5	2	8	218	RTPJ	430.518829584122	0.374531835205993	n/a	n/a	n/a	n/a	1042.51097804391	0	1035.41970146924	0.20024642819436	-0.000121437127295309	15.2472052969331	1101.09300538048	1	3	1	0	0	0	0
218.756606713653	2.61428922533989	reward_rtpj	221.370895938993	40	1	7	10	750	250	250	250	0	0	0	0	2000	0	BLOCKED	0.75	1	6	1	enthusiastic	At this moment	3	2	8	218	RTPJ	313.153905510902	0.455680399500624	n/a	n/a	n/a	n/a	1277.78440366972	0	976.174958161348	1.37764746325287	-0.000688667438389485	50.8387011993236	1552.69254419677	1	4	1	0	0	0	0
222.374807868004	2.64921237790585	reward_rtpj	225.02402024591	41	1	7	10	750	250	250	250	0	0	0	0	2000	0	BLOCKED	0.75	1	10	1	attentive	At this moment	1	2	8	218	RTPJ	692.039785027504	0	2035.98075595957	-0.839389763890567	0.00015641928962862	29.881771052849	971.611735330836	0.367409684857802	n/a	n/a	n/a	n/a	1042.29404617254	1	5	1	0	0	0	0
226.010214246392	2.61680056107045	reward_rtpj	228.627014807463	42	1	7	10	750	250	250	250	0	0	0	0	2000	0	BLOCKED	0.75	-1	1	1	proud	At this moment	1	2	8	218	RTPJ	592.782078266144	0.431960049937578	n/a	n/a	n/a	n/a	1501.4021978022	0.230591852421214	580.944204930327	1.30653924808066	-0.000407831024466468	19.722005734074	1380.4995004995	2	6	1	0	0	0	0
229.631866459846	2.51448778378963	reward_rtpj	232.146354243636	43	1	7	10	750	250	250	250	0	0	0	0	2000	0	BLOCKED	0.75	1	8	1	ashamed	At this moment	3	2	8	218	RTPJ	1337.34975445271	0	10031.4739876228	-8.4020034705178	0.0019889798479305	42.0338453463615	1265.07990012484	0.272098385857033	n/a	n/a	n/a	n/a	1450.65997888068	1	7	1	0	0	0	0
233.159558679104	2.62886851310731	reward_rtpj	235.788427192211	44	1	7	10	750	250	250	250	0	0	0	0	2000	0	BLOCKED	0.75	1	1	-1	enthusiastic	At this moment	4	2	8	218	RTPJ	723.454754590988	0.458177278401998	n/a	n/a	n/a	n/a	1445.62211981567	0.239046887009992	1020.89722793751	0.671004969688597	-0.000269638092049562	40.905697308591	1380.63636363636	2	8	1	0	0	0	0
236.788914861083	6.41638454401493	panas_none	243.205299405098	45	5	8	10	n/a	n/a	n/a	n/a	n/a	n/a	n/a	n/a	2000	0	BLOCKED	n/a	n/a	+	0	strong	At this moment	5	2	8	218	NONE	n/a	0	-1805.02317567346	3.20801055972782	-0.000778117844910146	25.6078636270656	1458.93383270911	0.418139892390469	n/a	n/a	n/a	n/a	1255.53896961691	7	1	0	1	0	1	0
244.210947618485	6.43373010933396	panas_none	250.644677727818	46	5	8	10	n/a	n/a	n/a	n/a	n/a	n/a	n/a	n/a	2000	0	BLOCKED	n/a	n/a	+	0	proud	At this moment	5	2	8	218	NONE	n/a	1	n/a	n/a	n/a	n/a	n/a	1	n/a	n/a	n/a	n/a	n/a	5	2	0	1	0	1	0
251.64554692781	6.22200955522064	panas_none	257.86755648303	47	5	8	10	n/a	n/a	n/a	n/a	n/a	n/a	n/a	n/a	2000	0	BLOCKED	n/a	n/a	+	0	jittery	At this moment	1	2	8	218	NONE	n/a	1	n/a	n/a	n/a	n/a	n/a	1	n/a	n/a	n/a	n/a	n/a	4	3	0	1	0	1	0
258.85443702817	9.27139351618291	panas_none	268.125830544353	48	5	8	10	n/a	n/a	n/a	n/a	n/a	n/a	n/a	n/a	2000	0	BLOCKED	n/a	n/a	+	0	hostile	At this moment	1	2	8	218	NONE	n/a	0.450686641697878	n/a	n/a	n/a	n/a	2227.62954545455	0.308993082244427	n/a	n/a	n/a	n/a	1941.43047830923	8	4	0	1	0	1	0
269.131964311004	2.71336780285833	reward_vlpfc	271.845332113862	49	2	9	10	0	0	0	0	250	250	250	750	2000	0	BLOCKED	0.75	1	3	-1	enthusiastic	At this moment	3	2	8	218	VLPFC	714.72678732872	0.641697877652934	n/a	n/a	n/a	n/a	1730.77700348432	0.230591852421214	1245.94702449142	0.679086726168948	-0.000113129196992274	16.2468218980153	1746.56243756244	2	1	1	0	0	0	0
272.833031787276	2.63181497788435	reward_vlpfc	275.464846765161	50	2	9	10	0	0	0	0	250	250	250	750	2000	0	BLOCKED	0.75	-1	2	1	alert	At this moment	3	2	8	218	VLPFC	325.109725475311	0.596754057428215	n/a	n/a	n/a	n/a	1541.13622291022	0.233666410453497	619.97412259499	1.67289110986594	-0.000653005011369678	21.8986790068743	1569.8926780341	2	2	1	0	0	0	0
276.450762198567	2.66705125379559	reward_vlpfc	279.117813452363	51	2	9	10	0	0	0	0	250	250	250	750	2000	0	BLOCKED	0.75	-1	3	1	guilty	At this moment	5	2	8	218	VLPFC	561.573389530182	0.566791510611735	n/a	n/a	n/a	n/a	1382.75792507205	0.251345119139124	n/a	n/a	n/a	n/a	1479.45379876797	2	3	1	0	0	0	0
280.123734238505	2.66379307615762	reward_vlpfc	282.787527314663	52	2	9	10	0	0	0	0	250	250	250	750	2000	0	BLOCKED	0.75	-1	6	-1	upset	At this moment	5	2	8	218	VLPFC	367.85849916935	0.546816479400749	n/a	n/a	n/a	n/a	1490.11845730028	0.235203689469639	912.79151368314	0.952982117974918	-0.000391465948488967	27.0342052572949	1424.4824120603	2	4	1	0	0	0	0
283.771748425007	2.61889580917358	reward_vlpfc	286.39064423418	53	2	9	10	0	0	0	0	250	250	250	750	2000	0	BLOCKED	0.75	-1	3	1	enthusiastic	At this moment	3	2	8	218	VLPFC	397.441625118256	0.383270911360799	n/a	n/a	n/a	n/a	1368.27125506073	0.219830899308224	730.779289289936	1.40247346817988	-0.000563450974176565	14.8393539099898	1511.13596059113	2	5	1	0	0	0	0
287.395980381846	2.76405432975292	reward_vlpfc	290.160034711599	54	2	9	10	0	0	0	0	250	250	250	750	2000	0	BLOCKED	0.75	-1	3	1	irritable	At this moment	4	2	8	218	VLPFC	292.314967036247	0.374531835205993	n/a	n/a	n/a	n/a	1472.31936127745	0.267486548808609	n/a	n/a	n/a	n/a	1276.79118572928	2	6	1	0	0	0	0
291.145670519948	2.63441023635863	reward_vlpfc	293.780080756307	55	2	9	10	0	0	0	0	250	250	250	750	2000	0	BLOCKED	0.75	1	7	1	inspired	At this moment	1	2	8	218	VLPFC	496.950042366982	0.471910112359551	n/a	n/a	n/a	n/a	1612.09692671395	0	1261.48941166496	0.656059242344088	-0.000246748864888495	30.6346372082181	1609.35511145273	2	7	1	0	0	0	0
294.780637890577	2.70228118288514	reward_vlpfc	297.482919073462	56	2	9	10	0	0	0	0	250	250	250	750	2000	0	BLOCKED	0.75	-1	3	1	active	At this moment	4	2	8	218	VLPFC	707.493209481239	0.424469413233458	n/a	n/a	n/a	n/a	1145.65943600868	0	1026.64835693464	0.365970018602088	-7.52380278626275e-05	18.8188944889475	1272.8854727133	2	8	1	0	0	0	0
298.47189945066	6.31702140498163	panas_none	304.788920855641	57	5	10	10	n/a	n/a	n/a	n/a	n/a	n/a	n/a	n/a	2000	0	BLOCKED	n/a	n/a	+	0	proud	At this moment	5	2	8	218	NONE	n/a	0	118.471253927568	0.571610118516211	-8.45899828036209e-05	8.55856711710835	941.397003745318	0.0169100691775557	513.982570704188	0.934242591567043	-0.000543071228502863	44.580030932712	840.659890539484	3	1	0	1	0	1	1
305.791181833506	6.25345097100734	panas_none	312.044632804513	58	5	10	10	n/a	n/a	n/a	n/a	n/a	n/a	n/a	n/a	2000	0	BLOCKED	n/a	n/a	+	0	guilty	At this moment	3	2	8	218	NONE	n/a	0	7958.96431314524	-6.22570633939166	0.00147180956154301	15.9624552265825	1453.60549313358	0.229823212913144	1671.74226075615	-0.496886052562624	0.000275824465747644	36.1069381234276	1488.6876247505	4	2	0	1	0	1	1
313.0289949615	6.3883176695108	panas_none	319.417312631011	59	5	10	10	n/a	n/a	n/a	n/a	n/a	n/a	n/a	n/a	2000	0	BLOCKED	n/a	n/a	+	0	upset	At this moment	4	2	8	218	NONE	n/a	0	5878.57448636732	-4.13001258672695	0.000957351747368019	14.0819788916702	1478.85518102372	0.248270561106841	1795.58083393018	-0.411556828005409	0.000316813589609374	55.5952371149955	1724.8282208589	5	3	0	1	0	1	1
320.401342270613	13.1607773221731	panas_none	333.562119592786	60	5	10	10	n/a	n/a	n/a	n/a	n/a	n/a	n/a	n/a	2000	0	BLOCKED	n/a	n/a	+	0	hostile	At this moment	5	2	8	218	NONE	n/a	0.51310861423221	n/a	n/a	n/a	n/a	1744.89230769231	0.230591852421214	1490.89859010893	0.447204990875907	-5.08062201131087e-05	19.6804259812567	1789.71028971029	8	4	0	1	0	1	1
334.566595708489	2.61541266191006	reward_rtpj	337.1820083704	61	1	11	10	750	250	250	250	0	0	0	0	2000	0	BLOCKED	0.75	1	10	1	proud	At this moment	1	2	8	218	RTPJ	846.684046030045	0.404494382022472	n/a	n/a	n/a	n/a	1600.53039832285	0.230591852421214	885.20777868697	1.02937755709041	-0.000318483791255668	12.7183298490199	1440.45754245754	2	1	1	0	0	0	0
338.186702755928	2.61456250309948	reward_rtpj	340.801265259028	62	1	11	10	750	250	250	250	0	0	0	0	2000	0	BLOCKED	0.75	1	8	1	active	At this moment	2	2	8	218	RTPJ	1151.05850219727	0.431960049937578	n/a	n/a	n/a	n/a	1661.73406593407	0.230591852421214	1098.07975828523	1.67408461922027	-0.000836409974343021	43.5611385023105	1845.76323676324	2	2	1	0	0	0	0
341.785506821275	2.56866521549227	reward_rtpj	344.354172036767	63	1	11	10	750	250	250	250	0	0	0	0	2000	0	BLOCKED	0.75	1	9	1	afraid	At this moment	4	2	8	218	RTPJ	771.47162091732	0.805243445692884	n/a	n/a	n/a	n/a	1244.94871794872	0.248270561106841	1308.97987324491	-0.0331325768665888	5.62565785989266e-05	29.9456528053902	1326.24846625767	2	3	1	0	0	0	0
345.355319451332	2.65174557578564	reward_rtpj	348.007065027118	64	1	11	10	750	250	250	250	0	0	0	0	2000	0	BLOCKED	0.75	-1	3	1	distressed	At this moment	2	2	8	218	RTPJ	1343.69967496395	0.235955056179775	2406.81229743464	-0.619777552746824	-1.67891416160749e-05	32.6157054055831	1096.26470588235	0.389700230591852	n/a	n/a	n/a	n/a	1068.75440806045	2	4	1	0	0	0	0
348.995945613861	2.66418941712379	reward_rtpj	351.660135030985	65	1	11	10	750	250	250	250	0	0	0	0	2000	0	BLOCKED	0.75	1	3	-1	enthusiastic	At this moment	3	2	8	218	RTPJ	519.821463108063	0.871410736579276	n/a	n/a	n/a	n/a	1217.97087378641	0	708.534209604273	0.624176201355731	-0.000250796859395793	37.8376200900835	1023.1329746349	1	5	1	0	0	0	0
352.667952542067	2.61180468845367	reward_rtpj	355.27975723052	66	1	11	10	750	250	250	250	0	0	0	0	2000	0	BLOCKED	0.75	1	4	-1	determined	At this moment	5	2	8	218	RTPJ	1003.54450249672	0.878901373283396	n/a	n/a	n/a	n/a	1601.46391752577	0.230591852421214	993.237701599689	1.1816391919842	-0.00042088894476016	51.9856120604752	1641.50649350649	3	6	1	0	0	0	0
356.267263670206	2.61537986862658	reward_rtpj	358.882643538833	67	1	11	10	750	250	250	250	0	0	0	0	2000	0	BLOCKED	0.75	-1	4	1	upset	At this moment	3	2	8	218	RTPJ	575.54652929306	0.696629213483146	n/a	n/a	n/a	n/a	1342.95473251029	0.102997694081476	963.396211534535	1.62232384226489	-0.000994927012482563	40.1898958425432	1511.30162810626	2	7	1	0	0	0	0
359.874921586871	2.77743577885627	reward_rtpj	362.652357365727	68	1	11	10	750	250	250	250	0	0	0	0	2000	0	BLOCKED	0.75	-1	4	1	proud	At this moment	4	2	8	218	RTPJ	407.186891436577	0.421972534332085	n/a	n/a	n/a	n/a	1153	0.317448116833205	n/a	n/a	n/a	n/a	1009.51013513514	2	8	1	0	0	0	0
363.641391693234	6.33393572020532	panas_none	369.97532741344	69	5	12	10	n/a	n/a	n/a	n/a	n/a	n/a	n/a	n/a	2000	0	BLOCKED	n/a	n/a	+	0	scared	At this moment	1	2	8	218	NONE	n/a	0	1933.24647777566	-1.23516786319487	0.000335731764235857	8.09362416665319	837.955056179775	0.260568793235972	n/a	n/a	n/a	n/a	866.485446985447	5	1	0	1	0	1	0
370.986695774078	6.31100047564507	panas_none	377.297696249723	70	5	12	10	n/a	n/a	n/a	n/a	n/a	n/a	n/a	n/a	2000	0	BLOCKED	n/a	n/a	+	0	ashamed	At this moment	1	2	8	218	NONE	n/a	0	2587.85776336324	-1.44081781912451	0.00034564173912423	11.5315232093135	1104.76154806492	0.353574173712529	n/a	n/a	n/a	n/a	1451.23662306778	3	2	0	1	0	1	0
378.303309201479	6.33362506484985	panas_none	384.636934266329	71	5	12	10	n/a	n/a	n/a	n/a	n/a	n/a	n/a	n/a	2000	0	BLOCKED	n/a	n/a	+	0	determined	At this moment	5	2	8	218	NONE	n/a	0	-1659.23171050941	2.71920840428271	-0.000602682169456257	12.4601302076575	1361.95255930087	0.140661029976941	1504.62927163122	-0.255594702037803	0.00012581023915629	30.0646669288141	1397.00805008945	3	3	0	1	0	1	0
385.637839785814	10.9921479326487	panas_none	396.629987718463	72	5	12	10	n/a	n/a	n/a	n/a	n/a	n/a	n/a	n/a	2000	0	BLOCKED	n/a	n/a	+	0	upset	At this moment	2	2	8	218	NONE	n/a	0	5058.11986512762	-3.43731022881924	0.00076114462943145	23.1847398110085	1237.04619225968	0.552651806302844	n/a	n/a	n/a	n/a	1104.12027491409	7	4	0	1	0	1	0
397.615795251131	2.65041127443317	reward_vlpfc	400.266206525564	73	2	13	10	0	0	0	0	250	250	250	750	2000	0	BLOCKED	0.75	-1	10	-1	scared	At this moment	4	2	8	218	VLPFC	1524.50103855133	0.297128589263421	n/a	n/a	n/a	n/a	1327.60390763766	0.420445810914681	n/a	n/a	n/a	n/a	1405.24403183024	2	1	1	0	0	0	0
401.267293995261	2.61854319250585	reward_vlpfc	403.885837187767	74	2	13	10	0	0	0	0	250	250	250	750	2000	0	BLOCKED	0.75	1	7	1	excited	At this moment	2	2	8	218	VLPFC	742.815523982048	0.392009987515606	n/a	n/a	n/a	n/a	1665.62833675565	0.230591852421214	1116.41785844385	0.658759234583115	-0.000185624159349487	19.0799430690822	1523.94805194805	2	2	1	0	0	0	0
404.890567892671	2.74837240982055	reward_vlpfc	407.638940302491	75	2	13	10	0	0	0	0	250	250	250	750	2000	0	BLOCKED	0.75	1	10	1	hostile	At this moment	2	2	8	218	VLPFC	908.399011135101	0.480649188514357	n/a	n/a	n/a	n/a	1611.17548076923	0	1315.47771388201	0.540255894804452	-7.61194088774291e-05	23.4655161581048	1709.37202152191	2	3	1	0	0	0	0
408.623070085049	2.6357307857275	reward_vlpfc	411.258800870776	76	2	13	10	0	0	0	0	250	250	250	750	2000	0	BLOCKED	0.75	1	10	1	irritable	At this moment	5	2	8	218	VLPFC	695.373775362968	0.385767790262172	n/a	n/a	n/a	n/a	1470.42886178862	0.271329746348962	n/a	n/a	n/a	n/a	1597.45358649789	2	4	1	0	0	0	0
412.259347779155	2.58550054454804	reward_vlpfc	414.844848323703	77	2	13	10	0	0	0	0	250	250	250	750	2000	0	BLOCKED	0.75	-1	1	1	active	At this moment	2	2	8	218	VLPFC	376.514532566071	0	7799.9592159231	-5.95864881030434	0.00130138548646375	24.3490292848789	1092.57428214732	0.230591852421214	1055.68728013329	0.476855565585933	-0.000203299573574167	45.8213024539302	1306.08791208791	1	5	1	0	0	0	0
415.835760334969	2.69534239256387	reward_vlpfc	418.531102727532	78	2	13	10	0	0	0	0	250	250	250	750	2000	0	BLOCKED	0.75	1	7	1	upset	At this moment	4	2	8	218	VLPFC	332.674057722092	0.400749063670412	n/a	n/a	n/a	n/a	1134.53958333333	0.574173712528824	n/a	n/a	n/a	n/a	1105.14079422383	2	6	1	0	0	0	0
419.517173664808	2.60058936345575	reward_vlpfc	422.117763028264	79	2	13	10	0	0	0	0	250	250	250	750	2000	0	BLOCKED	0.75	1	1	-1	afraid	At this moment	2	2	8	218	VLPFC	421.832823753357	0.302122347066167	n/a	n/a	n/a	n/a	1211.55635062612	0.907763259031514	n/a	n/a	n/a	n/a	1046.425	2	7	1	0	0	0	0
423.118113881826	2.66920080482959	reward_vlpfc	425.787314686656	80	2	13	10	0	0	0	0	250	250	250	750	2000	0	BLOCKED	0.75	1	10	1	determined	At this moment	1	2	8	218	VLPFC	1063.49462127686	0.438202247191011	n/a	n/a	n/a	n/a	1386.87555555556	0.230591852421214	473.158058078118	0.938272534727395	-0.000160575114680276	12.5374414452717	1161.001998002	3	8	1	0	0	0	0
426.792308443665	6.3339829707146	panas_none	433.12629141438	81	5	14	10	n/a	n/a	n/a	n/a	n/a	n/a	n/a	n/a	2000	0	BLOCKED	n/a	n/a	+	0	excited	At this moment	5	2	8	218	NONE	n/a	0.328339575530587	n/a	n/a	n/a	n/a	1006.26951672862	0	652.373081578546	1.35972439622551	-0.000897163338047211	66.2143395393369	1033.69408147579	3	1	0	1	0	1	1
434.130609205246	6.48511305415633	panas_none	440.615722259402	82	5	14	10	n/a	n/a	n/a	n/a	n/a	n/a	n/a	n/a	2000	0	BLOCKED	n/a	n/a	+	0	enthusiastic	At this moment	5	2	8	218	NONE	n/a	0.292134831460674	n/a	n/a	n/a	n/a	1208.60317460317	0.229823212913144	1672.12687432048	-0.117197331566549	-5.7205717750603e-05	44.5917194397597	1490.52994011976	3	2	0	1	0	1	1
441.618008625746	6.27026761138438	panas_none	447.88827623713	83	5	14	10	n/a	n/a	n/a	n/a	n/a	n/a	n/a	n/a	2000	0	BLOCKED	n/a	n/a	+	0	jittery	At this moment	1	2	8	218	NONE	n/a	0.808988764044944	n/a	n/a	n/a	n/a	1258.88888888889	0.0522674865488086	1664.9799407514	-0.208935415434739	-6.31040200612778e-05	45.11455089005	1415.84184914842	4	3	0	1	0	1	1
448.872439165711	13.2607014744282	panas_none	462.13314064014	84	5	14	10	n/a	n/a	n/a	n/a	n/a	n/a	n/a	n/a	2000	0	BLOCKED	n/a	n/a	+	0	strong	At this moment	3	2	8	218	NONE	n/a	0.133583021223471	2086.14378891304	-0.691756315870224	0.000249652925635974	17.28563843027	1726.03170028818	0.240584166026134	788.964314412516	1.56593841010447	-0.000714201175803821	27.143083787699	1507.5495951417	10	4	0	1	0	1	1
463.141841103196	2.62772215640541	punish_rtpj	465.769563259602	85	3	15	10	750	250	250	250	0	0	0	0	2000	0	BLOCKED	0.25	-1	8	-1	excited	At this moment	5	2	8	218	RTPJ	836.305480241776	0	2642.19971112902	-0.467051916341203	2.18155187518933e-06	27.6751902962838	1670.65917602996	0.230591852421214	1109.41291187541	0.604537375398523	-0.000124770150890841	36.1103761285902	1470.12087912088	1	1	0	0	1	0	0
466.774244598269	2.6982740472555	punish_rtpj	469.472518645525	86	3	15	10	750	250	250	250	0	0	0	0	2000	0	BLOCKED	0.25	1	3	-1	inspired	At this moment	5	2	8	218	RTPJ	487.081712961197	0.375780274656679	n/a	n/a	n/a	n/a	1892.544	0.212913143735588	910.101919293059	1.19779000368093	-0.000418975524780725	13.4036938118351	1643.580078125	2	2	0	0	1	0	0
470.480111539721	2.67860826444627	punish_rtpj	473.158719804168	87	3	15	10	750	250	250	250	0	0	0	0	2000	0	BLOCKED	0.25	1	2	-1	afraid	At this moment	3	2	8	218	RTPJ	440.454156160355	0.83645443196005	n/a	n/a	n/a	n/a	1789.90076335878	0.230591852421214	1472.04754931397	0.611734209537959	-0.000280170088833144	41.2203924151386	1772.13686313686	2	3	0	0	1	0	0
474.168521841645	2.64336035203934	punish_rtpj	476.811882193685	88	3	15	10	750	250	250	250	0	0	0	0	2000	0	BLOCKED	0.25	-1	4	1	interested	At this moment	3	2	8	218	RTPJ	288.440415382385	0.413233458177278	n/a	n/a	n/a	n/a	1268.78510638298	0.230591852421214	923.916283992676	1.06761259210053	-0.000506352177637073	42.7328383943972	1400.03696303696	2	4	0	0	1	0	0
477.812621630788	2.55225796294212	punish_rtpj	480.36487959373	89	3	15	10	750	250	250	250	0	0	0	0	2000	0	BLOCKED	0.25	-1	6	-1	attentive	At this moment	4	2	8	218	RTPJ	610.279621362686	0.906367041198502	n/a	n/a	n/a	n/a	1351.22666666667	0	617.107528650384	1.1245376791737	-0.000438982042760122	19.7539615422369	1206.9239046887	3	5	0	0	1	0	0
481.371303563833	2.64626591312884	punish_rtpj	484.017569476962	90	3	15	10	750	250	250	250	0	0	0	0	2000	0	BLOCKED	0.25	1	9	1	irritable	At this moment	3	2	8	218	RTPJ	315.493869543076	0.400749063670412	n/a	n/a	n/a	n/a	1157.08125	0.230591852421214	804.734981870377	1.00075792407682	-0.000507786369905727	21.807482598794	1237.61938061938	2	6	0	0	1	0	0
485.011382112622	2.69264134907723	punish_rtpj	487.704023461699	91	3	15	10	750	250	250	250	0	0	0	0	2000	0	BLOCKED	0.25	1	1	-1	enthusiastic	At this moment	3	2	8	218	RTPJ	632.756111741066	0.374531835205993	n/a	n/a	n/a	n/a	1461.35928143713	0.230591852421214	573.904236030879	1.25093627643577	-0.000446104236992307	9.57238891842765	1309.31568431568	2	7	0	0	1	0	0
488.692293668985	2.6813163602352	punish_rtpj	491.373610029221	92	3	15	10	750	250	250	250	0	0	0	0	2000	0	BLOCKED	0.25	1	0	-1	excited	At this moment	3	2	8	218	RTPJ	1520.42796385288	0.237203495630462	2020.01269812883	-0.699733283170969	0.000215780705000143	13.2054768031386	1523.79214402619	0	797.710297641725	1.15416245456081	-0.000566808840259524	15.6690406353972	1290.25365103766	2	8	0	0	1	0	0
492.378331918716	6.15102429854869	panas_none	498.529356217265	93	5	16	10	n/a	n/a	n/a	n/a	n/a	n/a	n/a	n/a	2000	0	BLOCKED	n/a	n/a	+	0	hostile	At this moment	2	2	8	218	NONE	n/a	0.429463171036205	n/a	n/a	n/a	n/a	1143.84026258206	0	433.630155367222	1.87553509216493	-0.00108796639133857	87.6449042557986	1089.05303612606	3	1	0	1	0	0	0
499.513649614096	6.23828457641599	panas_none	505.751934190512	94	5	16	10	n/a	n/a	n/a	n/a	n/a	n/a	n/a	n/a	2000	0	BLOCKED	n/a	n/a	+	0	proud	At this moment	2	2	8	218	NONE	n/a	0.183520599250936	5658.4663671571	-3.44084650317027	0.000681310004947188	15.7554953523542	1507.47247706422	0.239046887009992	1687.5749572973	0.23579993264811	2.69505618024309e-06	15.0769336527803	1861.51212121212	4	2	0	1	0	0	0
506.737917326331	6.32395279014116	panas_none	513.061870116472	95	5	16	10	n/a	n/a	n/a	n/a	n/a	n/a	n/a	n/a	2000	0	BLOCKED	n/a	n/a	+	0	nervous	At this moment	3	2	8	218	NONE	n/a	0	1421.92199159629	-0.402835248964189	0.000113760527958352	11.9881952732055	1083.78277153558	0.239815526518063	984.099856511678	0.543482391184432	-0.000307684174697248	26.4146045725556	1161.07482305359	3	3	0	1	0	0	0
514.063672340155	5.41602099633212	panas_none	519.479693336487	96	5	16	10	n/a	n/a	n/a	n/a	n/a	n/a	n/a	n/a	2000	0	BLOCKED	n/a	n/a	+	0	alert	At this moment	2	2	8	218	NONE	n/a	0.382022471910112	n/a	n/a	n/a	n/a	1611.24242424242	0.265180630284397	n/a	n/a	n/a	n/a	1299.90585774059	5	4	0	1	0	0	0
