onset	duration	trial_type	offset	trial	block	blockCntr	frequency	amplitude_1	amplitude_2	amplitude_3	amplitude_4	amplitude_5	amplitude_6	amplitude_7	amplitude_8	transition	sham	mode	rewardFraction	guess	outcome	correct	word	when	answer	runNr	scanNr	subjectNr	target	reactionTime	outcomeEyeClosed	outcomeParms_1	outcomeParms_2	outcomeParms_3	outcomeSigma	outcomePupilArea	guessEyeClosed	guessParms_1	guessParms_2	guessParms_3	guessSigma	guessPupilArea	nrBlinks	trialInBlock	isReward	isPanas	isPunish	beforePanasReward	beforePanasVLPFC
20.6140286417007	2.6552456485033	reward_rtpj	23.269274290204	1	1	1	10	750	250	250	250	0	0	0	0	2000	0	BLOCKED	0.75	-1	3	1	interested	At this moment	1	1	6	218	RTPJ	1543.09486687183	1	n/a	n/a	n/a	n/a	n/a	1	n/a	n/a	n/a	n/a	n/a	2	1	1	0	0	0	0
24.2798683047295	2.69123511385918	reward_rtpj	26.9711034185886	2	1	1	10	750	250	250	250	0	0	0	0	2000	0	BLOCKED	0.75	1	8	1	afraid	At this moment	1	1	6	218	RTPJ	1582.69512665272	0.374531835205993	n/a	n/a	n/a	n/a	1537.75249500998	0	1170.23889130499	0.692094281542039	-0.000214265691606533	18.5286327425196	1573.33897002306	2	2	1	0	0	0	0
27.9589113453627	2.53129666674137	reward_rtpj	30.490208012104	3	1	1	10	750	250	250	250	0	0	0	0	2000	0	BLOCKED	0.75	-1	10	-1	nervous	At this moment	4	1	6	218	RTPJ	1486.10214388371	0.0474406991260924	4294.837581285	-2.27915802369052	0.000470996310876983	50.5885110022501	1614.32110091743	0	1360.29830756145	0.0936492882943646	3.85851108063574e-05	34.2947294347692	1470.08455034589	2	3	1	0	0	0	0
31.4970727528334	2.57940450811386	reward_rtpj	34.0764772609472	4	1	1	10	750	250	250	250	0	0	0	0	2000	0	BLOCKED	0.75	-1	0	1	inspired	At this moment	1	1	6	218	RTPJ	720.398978710175	0	16665.3931677948	-13.2184504585721	0.00284245969740238	37.8033637192053	1552.53433208489	0.230591852421214	1149.38947104872	0.551777783167231	3.4836869260565e-05	24.7638141646646	1551.60539460539	1	4	1	0	0	0	0
35.0827947407961	2.61361431705951	reward_rtpj	37.6964090578556	5	1	1	10	750	250	250	250	0	0	0	0	2000	0	BLOCKED	0.75	1	9	1	scared	At this moment	5	1	6	218	RTPJ	863.461898446083	0.374531835205993	n/a	n/a	n/a	n/a	1304.5369261477	0.230591852421214	1042.25442536447	1.06269672598443	-0.000423774284202024	30.9863739194489	1610.74325674326	2	5	1	0	0	0	0
38.7027628571987	2.69648698604107	reward_rtpj	41.3992498432398	6	1	1	10	750	250	250	250	0	0	0	0	2000	0	BLOCKED	0.75	-1	0	1	guilty	At this moment	5	1	6	218	RTPJ	641.112773537636	0.374531835205993	n/a	n/a	n/a	n/a	1367.21956087824	0	973.530923348084	0.31179411152488	4.07449037488981e-05	29.3755726697674	1275.48039969254	1	6	1	0	0	0	0
42.386478421092	2.54866268372535	reward_rtpj	44.9351411048174	7	1	1	10	750	250	250	250	0	0	0	0	2000	0	BLOCKED	0.75	1	8	1	ashamed	At this moment	3	1	6	218	RTPJ	641.046128988266	0.374531835205993	n/a	n/a	n/a	n/a	1467.55888223553	0.230591852421214	798.122851744107	0.716833527424259	-0.000164582989798671	15.316517349273	1322.48251748252	2	7	1	0	0	0	0
45.9456959788799	2.6762760578394	reward_rtpj	48.6219720367193	8	1	1	10	750	250	250	250	0	0	0	0	2000	0	BLOCKED	0.75	-1	10	-1	determined	At this moment	4	1	6	218	RTPJ	464.811856031418	0.641697877652934	n/a	n/a	n/a	n/a	1568.41463414634	0.230591852421214	858.663682950102	1.29726401199545	-0.00053492528777249	16.6411097912586	1539.35664335664	2	8	1	0	0	0	0
49.6960888818502	6.34823996698857	panas_none	56.0443288488388	9	5	2	10	n/a	n/a	n/a	n/a	n/a	n/a	n/a	n/a	2000	0	BLOCKED	n/a	n/a	+	0	nervous	At this moment	4	1	6	218	NONE	n/a	0.373283395755306	n/a	n/a	n/a	n/a	960.772908366534	0	351.691421892925	1.91989041970711	-0.00109354237736119	66.1390033236518	1040.3712528824	3	1	0	1	0	1	0
57.0508712979555	6.34937045598031	panas_none	63.4002417539358	10	5	2	10	n/a	n/a	n/a	n/a	n/a	n/a	n/a	n/a	2000	0	BLOCKED	n/a	n/a	+	0	jittery	At this moment	3	1	6	218	NONE	n/a	0	2798.25324915482	-2.15145693635267	0.000620377986358526	9.75768981297534	1049.11610486891	0.229823212913144	769.86313385636	0.600885008936598	-0.000248541939327483	46.9188507617517	1054.5998003992	4	2	0	1	0	1	0
64.3845965061188	6.20483359825612	panas_none	70.5894301043749	11	5	2	10	n/a	n/a	n/a	n/a	n/a	n/a	n/a	n/a	2000	0	BLOCKED	n/a	n/a	+	0	alert	At this moment	5	1	6	218	NONE	n/a	0.373283395755306	n/a	n/a	n/a	n/a	1056.55378486056	0	800.502575419959	-0.00726179419912559	4.05669327135678e-05	22.8631694422639	828.910837817064	4	3	0	1	0	1	0
71.5771830232143	8.05304306399822	panas_none	79.6302260872126	12	5	2	10	n/a	n/a	n/a	n/a	n/a	n/a	n/a	n/a	2000	0	BLOCKED	n/a	n/a	+	0	hostile	At this moment	4	1	6	218	NONE	n/a	0.374531835205993	n/a	n/a	n/a	n/a	1911.15568862275	0	1585.03844347897	0.0839606998489569	0.000128619324029155	33.330723448213	1765.21598770177	6	4	0	1	0	1	0
80.619541097641	2.68023312199117	punish_rtpj	83.2997742196322	13	3	3	10	750	250	250	250	0	0	0	0	2000	0	BLOCKED	0.25	-1	9	-1	enthusiastic	At this moment	1	1	6	218	RTPJ	415.909922003746	0.568039950062422	n/a	n/a	n/a	n/a	1252.38150289017	0	538.365079720847	0.938670241404586	-0.000355139803141406	27.1253539475493	1029.6379707917	1	1	0	0	1	0	0
84.3044897618294	2.66489500319958	punish_rtpj	86.9693847650289	14	3	3	10	750	250	250	250	0	0	0	0	2000	0	BLOCKED	0.25	-1	4	1	scared	At this moment	2	1	6	218	RTPJ	893.364847898483	0.374531835205993	n/a	n/a	n/a	n/a	1401.30139720559	0.230591852421214	848.010156038102	1.06338501375596	-0.000409050572681562	42.8146036840622	1397.65034965035	2	2	0	0	1	0	0
87.9591296151876	2.61360973298549	punish_rtpj	90.5727393481731	15	3	3	10	750	250	250	250	0	0	0	0	2000	0	BLOCKED	0.25	1	4	-1	alert	At this moment	1	1	6	218	RTPJ	340.313849925995	0.374531835205993	n/a	n/a	n/a	n/a	1479.23353293413	0	808.166301569895	0.742145144333083	-0.00018236168859983	29.8332677736821	1281.57340507302	1	3	0	0	1	0	0
91.5790127509832	2.67996231234073	punish_rtpj	94.258975063324	16	3	3	10	750	250	250	250	0	0	0	0	2000	0	BLOCKED	0.25	1	3	-1	afraid	At this moment	2	1	6	218	RTPJ	536.691348552704	0.430711610486891	n/a	n/a	n/a	n/a	1505.92763157895	0.230591852421214	922.829100740026	1.07531122743875	-0.00047156444874291	18.5311155353095	1460.97902097902	2	4	0	0	1	0	0
95.2634547051191	2.68151876223088	punish_rtpj	97.94497346735	17	3	3	10	750	250	250	250	0	0	0	0	2000	0	BLOCKED	0.25	1	2	-1	active	At this moment	1	1	6	218	RTPJ	296.652151823044	0.374531835205993	n/a	n/a	n/a	n/a	1674.67265469062	0	1023.4775160776	0.667931939725322	-0.000168603499057691	34.823293307368	1448.51883166795	1	5	0	0	1	0	0
98.9459438682795	2.6520043964386	punish_rtpj	101.597948264718	18	3	3	10	750	250	250	250	0	0	0	0	2000	0	BLOCKED	0.25	-1	9	-1	distressed	At this moment	5	1	6	218	RTPJ	269.93967795372	0.436953807740325	n/a	n/a	n/a	n/a	1484.47893569845	0	665.606156027316	1.38770963248964	-0.000543737920116322	15.27745076338	1393.45119139124	1	6	0	0	1	0	0
102.583867929459	2.63391445744037	punish_rtpj	105.217782386899	19	3	3	10	750	250	250	250	0	0	0	0	2000	0	BLOCKED	0.25	1	4	-1	inspired	At this moment	4	1	6	218	RTPJ	394.243392348289	0.375780274656679	n/a	n/a	n/a	n/a	1526.746	0	921.508265643494	0.871349844545907	-0.000255989757951625	32.6631832116854	1442.30053804766	1	7	0	0	1	0	0
106.205795536637	2.58345572066307	punish_rtpj	108.7892512573	20	3	3	10	750	250	250	250	0	0	0	0	2000	0	BLOCKED	0.25	-1	3	1	jittery	At this moment	3	1	6	218	RTPJ	1253.9647333622	0.811485642946317	n/a	n/a	n/a	n/a	1592.52317880795	0.230591852421214	926.869242137379	0.906050937915695	-0.000309386918265102	35.9627708227088	1471.65134865135	3	8	0	0	1	0	0
109.787859126806	6.07171023654938	panas_none	115.859569363356	21	5	4	10	n/a	n/a	n/a	n/a	n/a	n/a	n/a	n/a	2000	0	BLOCKED	n/a	n/a	+	0	afraid	At this moment	2	1	6	218	NONE	n/a	0	1248.92816324454	-0.580307693725842	0.000216000623644774	11.5854165655899	994.240948813983	0	799.202826501242	0.995397411974212	-0.00069456855030843	72.1774003075073	1045.92697924673	2	1	0	1	0	0	0
116.844571872234	6.38788536155224	panas_none	123.232457233787	22	5	4	10	n/a	n/a	n/a	n/a	n/a	n/a	n/a	n/a	2000	0	BLOCKED	n/a	n/a	+	0	alert	At this moment	5	1	6	218	NONE	n/a	0	-3042.87865165442	3.57484472066238	-0.00078394152475039	15.1734483789926	968.10986267166	0.196771714066103	1369.67896546187	-0.539983848974616	0.000148801078732999	14.5562367649412	960.172248803828	4	2	0	1	0	0	0
124.216361341715	6.2717165131569	panas_none	130.488077854872	23	5	4	10	n/a	n/a	n/a	n/a	n/a	n/a	n/a	n/a	2000	0	BLOCKED	n/a	n/a	+	0	interested	At this moment	5	1	6	218	NONE	n/a	0	590.654675209867	0.35254433528866	-0.000124840661156929	10.099228164614	773.607990012484	0.249039200614912	965.057980623584	-0.452762172382862	0.000265198303498959	9.2092217286693	807.219037871034	3	3	0	1	0	0	0
131.472528518677	14.0948348362446	panas_none	145.567363354921	24	5	4	10	n/a	n/a	n/a	n/a	n/a	n/a	n/a	n/a	2000	0	BLOCKED	n/a	n/a	+	0	hostile	At this moment	2	1	6	218	NONE	n/a	1	n/a	n/a	n/a	n/a	n/a	1	n/a	n/a	n/a	n/a	n/a	12	4	0	1	0	0	0
146.573131457925	2.61344012451173	punish_rtpj	149.186571582437	25	3	5	10	750	250	250	250	0	0	0	0	2000	0	BLOCKED	0.25	1	10	1	scared	At this moment	3	1	6	218	RTPJ	558.049691438675	0.197253433208489	-11735.0486352688	13.0455872185326	-0.0031319059543489	42.835885492149	1711.44167962675	0	805.819018931236	0.796094314266162	-0.000143566862113708	54.9586558747332	1359.75096079938	1	1	0	0	1	0	0
150.17103740871	2.61851392531395	punish_rtpj	152.789551334023	26	3	5	10	750	250	250	250	0	0	0	0	2000	0	BLOCKED	0.25	1	4	-1	alert	At this moment	1	1	6	218	RTPJ	625.270765542984	0.347066167290886	n/a	n/a	n/a	n/a	1628.46080305927	0.162182936202921	715.34842426104	1.21817462401735	-0.000393904296712148	29.1084418014549	1365.26605504587	2	2	0	0	1	0	0
153.773745645642	2.65220750355718	punish_rtpj	156.425953149199	27	3	5	10	750	250	250	250	0	0	0	0	2000	0	BLOCKED	0.25	1	2	-1	jittery	At this moment	2	1	6	218	RTPJ	672.595092773438	0.440699126092385	n/a	n/a	n/a	n/a	1755.42857142857	0	811.487361554022	1.60764301627117	-0.000681550672226158	18.21215267151	1589.53036126057	1	3	0	0	1	0	0
157.431306222558	2.7813269034624	punish_rtpj	160.21263312602	28	3	5	10	750	250	250	250	0	0	0	0	2000	0	BLOCKED	0.25	1	3	-1	upset	At this moment	3	1	6	218	RTPJ	1167.39311563969	0.484394506866417	n/a	n/a	n/a	n/a	1649.71670702179	0.230591852421214	899.373113641286	0.647706130524283	-3.47637818714945e-05	46.8056927295197	1401.38461538462	2	4	0	0	1	0	0
161.221960188866	2.67677324736118	punish_rtpj	163.898733436227	29	3	5	10	750	250	250	250	0	0	0	0	2000	0	BLOCKED	0.25	1	8	1	determined	At this moment	1	1	6	218	RTPJ	721.521710038185	0.478152309612984	n/a	n/a	n/a	n/a	1652.98086124402	0.230591852421214	1088.35612525197	1.10027555053103	-0.000424641536888295	54.4372203692832	1663.13186813187	2	5	0	0	1	0	0
164.90258577311	2.63222859716416	punish_rtpj	167.534814370275	30	3	5	10	750	250	250	250	0	0	0	0	2000	0	BLOCKED	0.25	-1	6	-1	hostile	At this moment	1	1	6	218	RTPJ	1188.09594404697	0.619225967540574	n/a	n/a	n/a	n/a	1793.93442622951	0.24750192159877	954.680966448994	1.17773244828686	-0.000345134851204921	46.1391431486089	1678.29213483146	2	6	0	0	1	0	0
168.519123634696	2.5519455448389	punish_rtpj	171.071069179535	31	3	5	10	750	250	250	250	0	0	0	0	2000	0	BLOCKED	0.25	1	3	-1	ashamed	At this moment	4	1	6	218	RTPJ	543.768012166023	0.373283395755306	n/a	n/a	n/a	n/a	1744.91235059761	0.0199846272098386	1108.16008561034	1.04946836791485	-0.000450748563565307	46.1846573408841	1610.36	2	7	0	0	1	0	0
172.077534405708	2.69675003814697	punish_rtpj	174.774284443855	32	3	5	10	750	250	250	250	0	0	0	0	2000	0	BLOCKED	0.25	-1	6	-1	alert	At this moment	4	1	6	218	RTPJ	182.400127530098	0.446941323345818	n/a	n/a	n/a	n/a	1627.93453724605	0	1209.79582027796	0.761520727315715	-0.000269135774717797	27.3390350848248	1625.17755572636	1	8	0	0	1	0	0
175.758241091728	6.32183462214468	panas_none	182.080075713873	33	5	6	10	n/a	n/a	n/a	n/a	n/a	n/a	n/a	n/a	2000	0	BLOCKED	n/a	n/a	+	0	afraid	At this moment	1	1	6	218	NONE	n/a	0.18976279650437	-7316.32256915576	7.67590279715228	-0.0017354725104765	28.5518979021583	1108.32357473035	0	635.518421624871	1.14828431801699	-0.000626841584162786	81.0619087919926	1076.44657955419	3	1	0	1	0	0	0
183.070645334244	6.38355769741534	panas_none	189.454203031659	34	5	6	10	n/a	n/a	n/a	n/a	n/a	n/a	n/a	n/a	2000	0	BLOCKED	n/a	n/a	+	0	inspired	At this moment	2	1	6	218	NONE	n/a	0	284.6024154931	0.486372769846308	-5.7096143609279e-05	19.4180188350483	1052.10611735331	0	1261.64920259739	0.0440225693338623	-0.000126982685955885	26.1511004253801	1188.89315910838	3	2	0	1	0	0	0
190.436948794007	6.32169604384899	panas_none	196.758644837856	35	5	6	10	n/a	n/a	n/a	n/a	n/a	n/a	n/a	n/a	2000	0	BLOCKED	n/a	n/a	+	0	nervous	At this moment	1	1	6	218	NONE	n/a	0	927.137248222746	-0.0236983202760857	-1.81883917656377e-05	9.69894854851789	796.282147315855	0	697.020537423241	0.36735731920964	-0.000195917855385782	12.660440399551	839.792467332821	2	3	0	1	0	0	0
197.762588502288	11.5729826537371	panas_none	209.335571156025	36	5	6	10	n/a	n/a	n/a	n/a	n/a	n/a	n/a	n/a	2000	0	BLOCKED	n/a	n/a	+	0	distressed	At this moment	3	1	6	218	NONE	n/a	0	669.236861523533	0.850478220899469	-0.00028962045530839	22.6008007403473	1161.33208489388	0.604919292851653	n/a	n/a	n/a	n/a	976.110894941634	8	4	0	1	0	0	0
210.321510567427	2.65041233217715	punish_vlpfc	212.971922899604	37	4	7	10	0	0	0	0	250	250	250	750	2000	0	BLOCKED	0.25	-1	7	-1	upset	At this moment	2	1	6	218	VLPFC	1126.8104660511	0.384519350811486	n/a	n/a	n/a	n/a	1787.22312373225	0.237509607993851	756.084726889814	0.510079718140941	0.000108608999285293	20.4356338002606	1296.28931451613	2	1	0	0	1	0	0
213.974887700319	2.59972122144697	punish_vlpfc	216.574608921766	38	4	7	10	0	0	0	0	250	250	250	750	2000	0	BLOCKED	0.25	1	4	-1	enthusiastic	At this moment	5	1	6	218	VLPFC	330.101719379425	0.284644194756554	n/a	n/a	n/a	n/a	2166.4554973822	0.0245964642582629	1753.56236594581	0.796388303232772	-0.000314716131445407	21.9447478771644	2156.82427107959	2	2	0	0	1	0	0
217.563416164041	2.66447856295107	punish_vlpfc	220.227894726992	39	4	7	10	0	0	0	0	250	250	250	750	2000	0	BLOCKED	0.25	-1	8	-1	determined	At this moment	2	1	6	218	VLPFC	1153.23908376694	0	1826.06844876734	0.518789746455528	-0.000197231190049019	31.0362393386153	2035.4456928839	0.241352805534204	1647.34058814023	0.856545625774271	-0.000339279885152452	30.0844655776844	2042.94731509625	1	3	0	0	1	0	0
221.230954028964	2.64965314877031	punish_vlpfc	223.880607177734	40	4	7	10	0	0	0	0	250	250	250	750	2000	0	BLOCKED	0.25	1	10	1	interested	At this moment	5	1	6	218	VLPFC	392.551890254021	0.324594257178527	n/a	n/a	n/a	n/a	1500.47319778189	0.230591852421214	925.559693375575	1.27884469632428	-0.000500317390897575	30.5681766765309	1561.1028971029	2	4	0	0	1	0	0
224.868742685318	2.76489708352091	punish_vlpfc	227.633639768839	41	4	7	10	0	0	0	0	250	250	250	750	2000	0	BLOCKED	0.25	1	3	-1	scared	At this moment	2	1	6	218	VLPFC	274.696123838425	0.449438202247191	n/a	n/a	n/a	n/a	1798.36961451247	0	1137.61966748515	0.816646167581328	-0.000260449700354419	47.4450841935794	1609.65949269792	2	5	0	0	1	0	0
228.622735451818	2.63053991603852	punish_vlpfc	231.253275367856	42	4	7	10	0	0	0	0	250	250	250	750	2000	0	BLOCKED	0.25	-1	6	-1	enthusiastic	At this moment	5	1	6	218	VLPFC	399.511837601662	0.764044943820225	n/a	n/a	n/a	n/a	1838.62433862434	0	903.617955160026	1.07002820321864	-0.000280938555785383	39.6473507225642	1571.85088393543	2	6	0	0	1	0	0
232.254182650447	2.76892467081547	punish_vlpfc	235.023107321262	43	4	7	10	0	0	0	0	250	250	250	750	2000	0	BLOCKED	0.25	-1	7	-1	excited	At this moment	5	1	6	218	VLPFC	675.22772860527	0.655430711610487	n/a	n/a	n/a	n/a	1868.51449275362	0.271329746348962	n/a	n/a	n/a	n/a	1748.02320675105	2	7	0	0	1	0	0
236.023853458166	2.75222051513197	punish_vlpfc	238.776073973298	44	4	7	10	0	0	0	0	250	250	250	750	2000	0	BLOCKED	0.25	1	10	1	afraid	At this moment	1	1	6	218	VLPFC	342.432370781898	0.385767790262172	n/a	n/a	n/a	n/a	1522.42073170732	0	992.336491477301	1.46914847190812	-0.000652591870776082	38.0250691319676	1678.42121445042	1	8	0	0	1	0	0
239.778619512916	6.08651202535628	panas_none	245.865131538272	45	5	8	10	n/a	n/a	n/a	n/a	n/a	n/a	n/a	n/a	2000	0	BLOCKED	n/a	n/a	+	0	scared	At this moment	1	1	6	218	NONE	n/a	0.875156054931336	n/a	n/a	n/a	n/a	1430.82	0.13989239046887	-164.3023295807	3.19082337378951	-0.00149529616629284	40.7496231194231	1361.34852546917	8	1	0	1	0	0	1
246.849361111522	6.32170203828812	panas_none	253.17106314981	46	5	8	10	n/a	n/a	n/a	n/a	n/a	n/a	n/a	n/a	2000	0	BLOCKED	n/a	n/a	+	0	inspired	At this moment	2	1	6	218	NONE	n/a	0	580.438624716339	0.219655873791583	1.15153747698871e-05	10.7692303798712	1093.36329588015	0.368946963873943	n/a	n/a	n/a	n/a	1476.78075517661	4	2	0	1	0	0	1
254.171990884185	6.15491612827779	panas_none	260.326907012463	47	5	8	10	n/a	n/a	n/a	n/a	n/a	n/a	n/a	n/a	2000	0	BLOCKED	n/a	n/a	+	0	active	At this moment	5	1	6	218	NONE	n/a	0.283395755305868	n/a	n/a	n/a	n/a	1131.21428571429	0	1294.62500243263	-0.483039172280112	0.000237342449998012	41.706516342002	1090.03920061491	3	3	0	1	0	0	1
261.315116217017	11.9587202273607	panas_none	273.273836444378	48	5	8	10	n/a	n/a	n/a	n/a	n/a	n/a	n/a	n/a	2000	0	BLOCKED	n/a	n/a	+	0	jittery	At this moment	2	1	6	218	NONE	n/a	0.454431960049938	n/a	n/a	n/a	n/a	1944.99542334096	0.350499615680246	n/a	n/a	n/a	n/a	1670.2224852071	9	4	0	1	0	0	1
274.277176429272	2.74667773413654	reward_vlpfc	277.023854163408	49	2	9	10	0	0	0	0	250	250	250	750	2000	0	BLOCKED	0.75	1	9	1	strong	At this moment	4	1	6	218	VLPFC	672.277737736702	0	5337.48607385133	-3.42813855446977	0.00080133273343827	51.3348268108585	1715.89637952559	0.32205995388163	n/a	n/a	n/a	n/a	1322.07256235828	2	1	1	0	0	0	0
278.024578437924	2.65221631908418	reward_vlpfc	280.676794757009	50	2	9	10	0	0	0	0	250	250	250	750	2000	0	BLOCKED	0.75	1	3	-1	distressed	At this moment	3	1	6	218	VLPFC	1026.55132818222	0.521847690387016	n/a	n/a	n/a	n/a	1774.73107049608	0.230591852421214	1265.7056455955	0.84614081144702	-0.000314303939643083	38.7370463425254	1708.41958041958	2	2	1	0	0	0	0
281.660930181623	2.64107186985012	reward_vlpfc	284.302002051473	51	2	9	10	0	0	0	0	250	250	250	750	2000	0	BLOCKED	0.75	-1	0	1	hostile	At this moment	3	1	6	218	VLPFC	1124.81359791756	0.375780274656679	n/a	n/a	n/a	n/a	1627.818	0.239815526518063	1214.44229276354	0.99168577028864	-0.000334528245835224	18.9556759858406	1790.92214357937	2	3	1	0	0	0	0
285.30103976059	2.5982638567686	reward_vlpfc	287.899303617358	52	2	9	10	0	0	0	0	250	250	250	750	2000	0	BLOCKED	0.75	1	6	1	guilty	At this moment	1	1	6	218	VLPFC	648.139718055725	0.651685393258427	n/a	n/a	n/a	n/a	1591.99641577061	0.230591852421214	1123.11006290146	1.01335023327102	-0.000422541196847933	28.2599674122421	1630.85214785215	2	4	1	0	0	0	0
288.883476066709	2.68544620633128	reward_vlpfc	291.56892227304	53	2	9	10	0	0	0	0	250	250	250	750	2000	0	BLOCKED	0.75	-1	7	-1	ashamed	At this moment	4	1	6	218	VLPFC	817.826604962349	0.652933832709114	n/a	n/a	n/a	n/a	1786.94604316547	0.233666410453497	1104.40191192343	1.129516376838	-0.000428775468312781	21.0381772852006	1705.03911735206	2	5	1	0	0	0	0
292.56046264708	2.7781819156408	reward_vlpfc	295.338644562721	54	2	9	10	0	0	0	0	250	250	250	750	2000	0	BLOCKED	0.75	1	6	1	scared	At this moment	1	1	6	218	VLPFC	541.058505892754	0.414481897627965	n/a	n/a	n/a	n/a	2013.80810234542	0.252113758647194	n/a	n/a	n/a	n/a	1821.94141829394	2	6	1	0	0	0	0
296.327909148931	2.71372923493385	reward_vlpfc	299.041638383865	55	2	9	10	0	0	0	0	250	250	250	750	2000	0	BLOCKED	0.75	-1	0	1	distressed	At this moment	3	1	6	218	VLPFC	897.248920321465	0.428214731585518	n/a	n/a	n/a	n/a	1590.34716157205	0.230591852421214	1189.75177514766	0.907684805366087	-0.000355078211135267	14.6349311940739	1684.51148851149	2	7	1	0	0	0	0
300.025910271049	2.75231078505516	reward_vlpfc	302.778221056104	56	2	9	10	0	0	0	0	250	250	250	750	2000	0	BLOCKED	0.75	1	9	1	attentive	At this moment	5	1	6	218	VLPFC	588.189246535301	0.433208489388265	n/a	n/a	n/a	n/a	1614.93392070485	0.272867025365104	n/a	n/a	n/a	n/a	1658.07716701903	2	8	1	0	0	0	0
303.783157689095	6.11731414723397	panas_none	309.900471836329	57	5	10	10	n/a	n/a	n/a	n/a	n/a	n/a	n/a	n/a	2000	0	BLOCKED	n/a	n/a	+	0	active	At this moment	5	1	6	218	NONE	n/a	0	537.941645970448	0.475867878961051	-3.67873504319862e-05	7.35034193671185	1373.19600499376	0.149884704073789	-150.041682309853	3.40046642068343	-0.00179419698640413	64.1055851464303	1286.0027124774	4	1	0	1	0	1	1
310.886318156838	6.47025378870967	panas_none	317.356571945548	58	5	10	10	n/a	n/a	n/a	n/a	n/a	n/a	n/a	n/a	2000	0	BLOCKED	n/a	n/a	+	0	scared	At this moment	5	1	6	218	NONE	n/a	0	3804.74767944703	-2.43558150918896	0.000520935990649109	8.66033699050513	1015.25343320849	0.244427363566487	1112.67479313939	0.205067279053536	-2.82562577277507e-05	17.1675904874291	1233.36520854527	4	2	0	1	0	1	1
318.340793408632	6.23830855429173	panas_none	324.579101962924	59	5	10	10	n/a	n/a	n/a	n/a	n/a	n/a	n/a	n/a	2000	0	BLOCKED	n/a	n/a	+	0	interested	At this moment	5	1	6	218	NONE	n/a	0	2000.34264145964	-0.796772170637918	0.000185368086116148	23.1980936520493	1154.68789013733	0.240584166026134	1301.66476812896	-0.544322563467744	0.000340509093567097	9.10794840604393	1125.21558704453	5	3	0	1	0	1	1
325.566537174106	13.7411550521851	panas_none	339.307692226291	60	5	10	10	n/a	n/a	n/a	n/a	n/a	n/a	n/a	n/a	2000	0	BLOCKED	n/a	n/a	+	0	irritable	At this moment	5	1	6	218	NONE	n/a	1	n/a	n/a	n/a	n/a	n/a	1	n/a	n/a	n/a	n/a	n/a	12	4	0	1	0	1	1
340.296380284309	2.63127794265745	punish_vlpfc	342.927658226967	61	4	11	10	0	0	0	0	250	250	250	750	2000	0	BLOCKED	0.25	1	3	-1	distressed	At this moment	5	1	6	218	VLPFC	628.89460682869	0.433208489388265	n/a	n/a	n/a	n/a	1998.53524229075	0.218293620292083	1321.13082152157	0.693514599552168	-1.42596050892496e-05	49.1558669740998	1808.71583087512	2	1	0	0	1	0	0
343.930330003381	2.71685870754715	punish_vlpfc	346.647188710928	62	4	11	10	0	0	0	0	250	250	250	750	2000	0	BLOCKED	0.25	-1	9	-1	attentive	At this moment	2	1	6	218	VLPFC	451.696632504463	0.579275905118602	n/a	n/a	n/a	n/a	1946.42433234421	0	1645.7963944863	0.761085906873501	-0.000376482578999296	25.3564031453141	1967.37048424289	2	2	0	0	1	0	0
347.633565014124	2.64980583178999	punish_vlpfc	350.283370845914	63	4	11	10	0	0	0	0	250	250	250	750	2000	0	BLOCKED	0.25	1	10	1	enthusiastic	At this moment	1	1	6	218	VLPFC	380.80094063282	0.491885143570537	n/a	n/a	n/a	n/a	1460.81818181818	0	1081.21658115912	1.21509107004753	-0.000490429082713611	18.6334137909756	1696.03458877786	1	3	0	0	1	0	0
351.289122728586	2.63046621918676	punish_vlpfc	353.919588947773	64	4	11	10	0	0	0	0	250	250	250	750	2000	0	BLOCKED	0.25	-1	10	-1	guilty	At this moment	3	1	6	218	VLPFC	358.326213479042	0.514357053682896	n/a	n/a	n/a	n/a	1625.40616966581	0	956.577280632945	0.543672454546856	-7.16750749055268e-05	39.6877355077269	1360.10222905457	1	4	0	0	1	0	0
354.908046394467	2.73157551586627	punish_vlpfc	357.639621910334	65	4	11	10	0	0	0	0	250	250	250	750	2000	0	BLOCKED	0.25	-1	10	-1	afraid	At this moment	2	1	6	218	VLPFC	1322.4266654253	0.409488139825218	n/a	n/a	n/a	n/a	1844.27061310782	0.233666410453497	660.745336913851	1.92757323137792	-0.000712224550566005	15.1467716244931	1803.76529588766	2	5	0	0	1	0	0
358.623528486609	2.55228652501103	punish_vlpfc	361.175815011621	66	4	11	10	0	0	0	0	250	250	250	750	2000	0	BLOCKED	0.25	1	4	-1	determined	At this moment	5	1	6	218	VLPFC	394.06038415432	0.754057428214732	n/a	n/a	n/a	n/a	1665.83248730964	0	919.03605632338	1.0504661228426	-0.000332898656232174	12.5291001275013	1541.86933128363	2	6	0	0	1	0	0
362.176307617068	2.66918387937545	punish_vlpfc	364.845491496444	67	4	11	10	0	0	0	0	250	250	250	750	2000	0	BLOCKED	0.25	-1	3	1	strong	At this moment	3	1	6	218	VLPFC	445.558634638786	0.640449438202247	n/a	n/a	n/a	n/a	1567.27430555556	0.255956956187548	n/a	n/a	n/a	n/a	1567.11260330579	2	7	0	0	1	0	0
365.835247630358	2.59621092247966	punish_vlpfc	368.431458552837	68	4	11	10	0	0	0	0	250	250	250	750	2000	0	BLOCKED	0.25	-1	6	-1	alert	At this moment	4	1	6	218	VLPFC	573.668140411377	0.786516853932584	n/a	n/a	n/a	n/a	1695.34502923977	0.243658724058417	1197.38898394363	0.71834735410065	-0.000216467180219628	41.5759266202708	1644.33130081301	2	8	0	0	1	0	0
369.440449219465	6.07992655706403	panas_none	375.520375776529	69	5	12	10	n/a	n/a	n/a	n/a	n/a	n/a	n/a	n/a	2000	0	BLOCKED	n/a	n/a	+	0	ashamed	At this moment	2	1	6	218	NONE	n/a	0.740324594257179	n/a	n/a	n/a	n/a	1379.32692307692	0.171406610299769	211.606504519564	2.99279399407474	-0.00161879336786337	64.1745869340393	1436.70222634508	6	1	0	1	0	0	1
376.509201002359	6.13377993416782	panas_none	382.642980936527	70	5	12	10	n/a	n/a	n/a	n/a	n/a	n/a	n/a	n/a	2000	0	BLOCKED	n/a	n/a	+	0	scared	At this moment	1	1	6	218	NONE	n/a	0	3293.34923839119	-2.17414326847411	0.000619594759253509	15.0897628983699	1492.02372034956	0	1393.32408102476	-0.105833359450018	7.9895409486336e-05	58.2522093645915	1374.75634127594	3	2	0	1	0	0	1
383.632245522737	6.41668003666405	panas_none	390.048925559402	71	5	12	10	n/a	n/a	n/a	n/a	n/a	n/a	n/a	n/a	2000	0	BLOCKED	n/a	n/a	+	0	determined	At this moment	5	1	6	218	NONE	n/a	0.0599250936329588	3471.5915090064	-2.43716666033011	0.000634117300465748	14.5013910284547	1173.41168658699	0	1510.12491642206	-0.828734434698213	0.000376129799031342	37.9171036891669	1130.11913912375	3	3	0	1	0	0	1
391.036155194998	13.7914907256365	panas_none	404.827645920634	72	5	12	10	n/a	n/a	n/a	n/a	n/a	n/a	n/a	n/a	2000	0	BLOCKED	n/a	n/a	+	0	excited	At this moment	1	1	6	218	NONE	n/a	0.441947565543071	n/a	n/a	n/a	n/a	1545.38926174497	0.616448885472713	n/a	n/a	n/a	n/a	1467.26052104208	11	4	0	1	0	0	1
405.830318754792	2.60035593128208	reward_vlpfc	408.430674686074	73	2	13	10	0	0	0	0	250	250	250	750	2000	0	BLOCKED	0.75	1	2	-1	alert	At this moment	2	1	6	218	VLPFC	956.01706802845	0.344569288389513	n/a	n/a	n/a	n/a	1629.67619047619	0	819.119159556384	0.736530778219892	-0.00017048175291772	11.7603154065641	1299.32590315142	2	1	1	0	0	0	0
409.419922699451	2.64693976342681	reward_vlpfc	412.066862462878	74	2	13	10	0	0	0	0	250	250	250	750	2000	0	BLOCKED	0.75	-1	3	1	scared	At this moment	3	1	6	218	VLPFC	1464.10133349895	0.504369538077403	n/a	n/a	n/a	n/a	1660.2241813602	0.268255188316679	n/a	n/a	n/a	n/a	1578.89915966387	2	2	1	0	0	0	0
413.052623802781	2.76736152136323	reward_vlpfc	415.819985324144	75	2	13	10	0	0	0	0	250	250	250	750	2000	0	BLOCKED	0.75	-1	0	1	interested	At this moment	3	1	6	218	VLPFC	454.344078421593	0.436953807740325	n/a	n/a	n/a	n/a	1423.69401330377	0	996.867523424844	0.840237620163561	-0.000321278121893761	49.9595754994736	1434.47809377402	1	3	1	0	0	0	0
416.82485672307	2.64808259403708	reward_vlpfc	419.472939317107	76	2	13	10	0	0	0	0	250	250	250	750	2000	0	BLOCKED	0.75	1	8	1	active	At this moment	4	1	6	218	VLPFC	414.481824398041	0.48689138576779	n/a	n/a	n/a	n/a	1323.43065693431	0.230591852421214	825.683553013991	0.783102272095916	-0.000299183276360211	41.8517242489889	1263.73426573427	2	4	1	0	0	0	0
420.457111766338	2.55219554996489	reward_vlpfc	423.009307316303	77	2	13	10	0	0	0	0	250	250	250	750	2000	0	BLOCKED	0.75	-1	1	1	ashamed	At this moment	1	1	6	218	VLPFC	327.719088673592	0.389513108614232	n/a	n/a	n/a	n/a	1225.24130879346	0.252882398155265	n/a	n/a	n/a	n/a	1123.30349794239	2	5	1	0	0	0	0
424.009911348581	2.66885277235508	reward_vlpfc	426.678764120936	78	2	13	10	0	0	0	0	250	250	250	750	2000	0	BLOCKED	0.75	-1	3	1	distressed	At this moment	3	1	6	218	VLPFC	540.881844878197	0.444444444444444	n/a	n/a	n/a	n/a	1587.28764044944	0	782.684889961989	0.931103326705827	-0.00016655900397583	25.6098550331688	1430.58416602613	1	6	1	0	0	0	0
427.676353986263	2.65536165940762	reward_vlpfc	430.331715645671	79	2	13	10	0	0	0	0	250	250	250	750	2000	0	BLOCKED	0.75	1	3	-1	enthusiastic	At this moment	5	1	6	218	VLPFC	317.249547719955	0.85143570536829	n/a	n/a	n/a	n/a	1330.21008403361	0	906.079343648039	0.835996720421183	-0.000373642280314623	26.8576623369872	1296.69638739431	2	7	1	0	0	0	0
431.318157535672	2.66667571711542	reward_vlpfc	433.984833252788	80	2	13	10	0	0	0	0	250	250	250	750	2000	0	BLOCKED	0.75	1	7	1	strong	At this moment	1	1	6	218	VLPFC	303.46576321125	0.523096129837703	n/a	n/a	n/a	n/a	1939.12565445026	0.230591852421214	1198.59025897154	1.32635509447777	-0.000580842460354772	28.0929739662737	1794.22477522478	3	8	1	0	0	0	0
434.990377091765	6.23354011952875	panas_none	441.223917211294	81	5	14	10	n/a	n/a	n/a	n/a	n/a	n/a	n/a	n/a	2000	0	BLOCKED	n/a	n/a	+	0	upset	At this moment	2	1	6	218	NONE	n/a	0	-429.66996247004	1.47036824620774	-0.000334083991793987	19.7012745331726	1167.24594257179	0	671.676554889986	2.33192272480134	-0.00141659502337849	62.3609001978996	1431.63105303613	1	1	0	1	0	1	1
442.224728582144	6.10492178785802	panas_none	448.329650370002	82	5	14	10	n/a	n/a	n/a	n/a	n/a	n/a	n/a	n/a	2000	0	BLOCKED	n/a	n/a	+	0	guilty	At this moment	1	1	6	218	NONE	n/a	0	3445.53126877263	-2.45021319818983	0.000629438034447849	17.0635071334136	1107.33832709114	0.261337432744043	n/a	n/a	n/a	n/a	1190.9448491155	3	2	0	1	0	1	1
449.330571757197	6.33830710875986	panas_none	455.668878865957	83	5	14	10	n/a	n/a	n/a	n/a	n/a	n/a	n/a	n/a	2000	0	BLOCKED	n/a	n/a	+	0	enthusiastic	At this moment	5	1	6	218	NONE	n/a	0	1644.15903151023	-0.758216566256614	0.000161939589664789	8.55999147703464	774.530586766542	0.411222136817832	n/a	n/a	n/a	n/a	820.575718015666	6	3	0	1	0	1	1
456.670009354949	14.2281302748918	panas_none	470.898139629841	84	5	14	10	n/a	n/a	n/a	n/a	n/a	n/a	n/a	n/a	2000	0	BLOCKED	n/a	n/a	+	0	interested	At this moment	4	1	6	218	NONE	n/a	0.570536828963795	n/a	n/a	n/a	n/a	1909.03197674419	0.338970023059185	n/a	n/a	n/a	n/a	1631.92441860465	10	4	0	1	0	1	1
471.898884356141	2.53540429794788	reward_rtpj	474.434288654089	85	1	15	10	750	250	250	250	0	0	0	0	2000	0	BLOCKED	0.75	1	9	1	jittery	At this moment	4	1	6	218	RTPJ	1411.99869823456	0.393258426966292	n/a	n/a	n/a	n/a	1096.27983539095	0	948.303146244648	0.304077224783239	-9.74285417275033e-05	15.0754726821523	1122.99769408148	2	1	1	0	0	0	0
475.423226364732	2.69748700690275	reward_rtpj	478.120713371635	86	1	15	10	750	250	250	250	0	0	0	0	2000	0	BLOCKED	0.75	-1	8	-1	strong	At this moment	1	1	6	218	RTPJ	1505.81376683712	0.362047440699126	n/a	n/a	n/a	n/a	1323.66340508806	0.428132205995388	n/a	n/a	n/a	n/a	1120.8252688172	3	2	1	0	0	0	0
479.126150720358	2.58074586176872	reward_rtpj	481.706896582127	87	1	15	10	750	250	250	250	0	0	0	0	2000	0	BLOCKED	0.75	1	8	1	determined	At this moment	1	1	6	218	RTPJ	324.217957854271	0.161048689138577	-7970.6975759971	9.25962135915505	-0.00223128321806194	36.670484351024	1529.1681547619	0	864.279575729842	0.973736045474724	-0.00033403901018211	29.4116803511777	1406.80860876249	1	3	1	0	0	0	0
482.711969325185	2.71449053406712	reward_rtpj	485.426459859252	88	1	15	10	750	250	250	250	0	0	0	0	2000	0	BLOCKED	0.75	-1	3	1	alert	At this moment	2	1	6	218	RTPJ	324.445748329163	0.459425717852684	n/a	n/a	n/a	n/a	1260.792147806	0	1004.58754364861	0.406707436737805	-0.000116507630540699	14.8849611094582	1251.18447348194	1	4	1	0	0	0	0
486.415691652298	2.63030683636663	reward_rtpj	489.045998488665	89	1	15	10	750	250	250	250	0	0	0	0	2000	0	BLOCKED	0.75	1	4	-1	enthusiastic	At this moment	1	1	6	218	RTPJ	335.494990825653	0.6916354556804	n/a	n/a	n/a	n/a	1534.78542510121	0.260568793235972	n/a	n/a	n/a	n/a	1281.97089397089	2	5	1	0	0	0	0
490.034703119755	2.68106529712679	reward_rtpj	492.715768416882	90	1	15	10	750	250	250	250	0	0	0	0	2000	0	BLOCKED	0.75	1	6	1	attentive	At this moment	2	1	6	218	RTPJ	633.15033698082	0.415730337078652	n/a	n/a	n/a	n/a	1440.56196581197	0.272867025365104	n/a	n/a	n/a	n/a	1587.04968287526	2	6	1	0	0	0	0
493.721459649563	2.70077550971507	reward_rtpj	496.422235159278	91	1	15	10	750	250	250	250	0	0	0	0	2000	0	BLOCKED	0.75	1	7	1	guilty	At this moment	3	1	6	218	RTPJ	277.365079164505	0	7146.08065030185	-5.54193411251255	0.00130790625443078	57.558412259851	1347.61173533084	0.245964642582629	1051.61959876095	0.146435492609261	5.7917257874899e-05	15.7358076822739	1239.17838939857	1	7	1	0	0	0	0
497.419780594826	2.58533375704292	reward_rtpj	500.005114351869	92	1	15	10	750	250	250	250	0	0	0	0	2000	0	BLOCKED	0.75	1	7	1	strong	At this moment	4	1	6	218	RTPJ	329.664827346802	0.418227215980025	n/a	n/a	n/a	n/a	1568.26824034335	0	1081.59049275546	0.84008277659246	-0.000216813862590731	23.782601352854	1608.190622598	1	8	1	0	0	0	0
501.010142312527	6.30069243323805	panas_none	507.310834745765	93	5	16	10	n/a	n/a	n/a	n/a	n/a	n/a	n/a	n/a	2000	0	BLOCKED	n/a	n/a	+	0	jittery	At this moment	1	1	6	218	NONE	n/a	0.373283395755306	n/a	n/a	n/a	n/a	1004.23505976096	0	688.051452546981	1.04575096571579	-0.00056543850443788	67.8856385128083	1096.13758647194	3	1	0	1	0	1	0
508.29824879992	6.13534766757482	panas_none	514.433596467495	94	5	16	10	n/a	n/a	n/a	n/a	n/a	n/a	n/a	n/a	2000	0	BLOCKED	n/a	n/a	+	0	attentive	At this moment	5	1	6	218	NONE	n/a	0	2735.11380888921	-1.78499122924934	0.00041184004015095	10.714740707158	824.732833957553	0.314373558800922	n/a	n/a	n/a	n/a	813.02466367713	4	2	0	1	0	1	0
515.417559815168	6.40523304271699	panas_none	521.822792857885	95	5	16	10	n/a	n/a	n/a	n/a	n/a	n/a	n/a	n/a	2000	0	BLOCKED	n/a	n/a	+	0	scared	At this moment	1	1	6	218	NONE	n/a	0	-1469.64856416718	2.610045477553	-0.000577734288886114	17.7371870483654	1432.96004993758	0	1870.67398388966	-0.232059994975007	-0.000105747905302663	32.5321843567487	1582.07148347425	3	3	0	1	0	1	0
519.102255124331	3.72139600229264	panas_none	522.823651126623	95	5	16	10	n/a	n/a	n/a	n/a	n/a	n/a	n/a	n/a	2000	0	BLOCKED	n/a	n/a	+	0	guilty	At this moment	1	1	6	218	NONE	n/a	1	n/a	n/a	n/a	n/a	n/a	0.740199846272098	n/a	n/a	n/a	n/a	1171.6775147929	1	3	0	1	0	1	0
