onset	duration	trial_type	offset	trial	block	blockCntr	frequency	amplitude_1	amplitude_2	amplitude_3	amplitude_4	amplitude_5	amplitude_6	amplitude_7	amplitude_8	transition	sham	mode	rewardFraction	guess	outcome	correct	word	when	answer	runNr	scanNr	subjectNr	target	reactionTime	outcomeEyeClosed	outcomeParms_1	outcomeParms_2	outcomeParms_3	outcomeSigma	outcomePupilArea	guessEyeClosed	guessParms_1	guessParms_2	guessParms_3	guessSigma	guessPupilArea	nrBlinks	trialInBlock	isReward	isPanas	isPunish	beforePanasReward	beforePanasVLPFC
20.5306060779095	2.62300330734253	punish_vlpfc	23.153609385252	1	4	1	10	0	0	0	0	250	250	250	750	2000	0	BLOCKED	0.25	1	9	1	inspired	At this moment	1	3	13	210	VLPFC	-38111.9907331467	0.583021223470662	n/a	n/a	n/a	n/a	871.87125748503	0.700999231360492	n/a	n/a	n/a	n/a	967.52442159383	6	1	0	0	1	0	0
24.1584222517014	2.69983109641075	punish_vlpfc	26.8582533481121	2	4	1	10	0	0	0	0	250	250	250	750	2000	0	BLOCKED	0.25	1	6	1	alert	At this moment	1	3	13	210	VLPFC	436.602678537369	0.820224719101124	n/a	n/a	n/a	n/a	1007.83333333333	0.230591852421214	548.501336420981	0.481802483051308	-7.84846226971927e-05	15.3912919883535	904.481518481518	4	2	0	0	1	0	0
27.857223354578	2.66861146569252	punish_vlpfc	30.5258348202705	3	4	1	10	0	0	0	0	250	250	250	750	2000	0	BLOCKED	0.25	1	9	1	enthusiastic	At this moment	5	3	13	210	VLPFC	693.022772312164	0.787765293383271	n/a	n/a	n/a	n/a	722.082352941177	0.239046887009992	639.768925763933	0.555837461240101	-0.000242120517710242	23.9414852692334	907.827272727273	4	3	0	0	1	0	0
31.5152295184135	2.5468751103878	punish_vlpfc	34.0621046288013	4	4	1	10	0	0	0	0	250	250	250	750	2000	0	BLOCKED	0.25	1	1	-1	strong	At this moment	4	3	13	210	VLPFC	1153.65557813644	0.881398252184769	n/a	n/a	n/a	n/a	1073.52631578947	0.455803228285934	n/a	n/a	n/a	n/a	948.944915254237	5	4	0	0	1	0	0
35.0671741998196	2.68140404939652	punish_vlpfc	37.7485782492161	5	4	1	10	0	0	0	0	250	250	250	750	2000	0	BLOCKED	0.25	1	4	-1	guilty	At this moment	2	3	13	210	VLPFC	712.477697134018	0.860174781523096	n/a	n/a	n/a	n/a	993.366071428571	0.205226748654881	256.991405264699	1.32510284428282	-0.000563629959636641	23.2680555507461	955.639264990329	4	5	0	0	1	0	0
38.7326364452839	2.68561499881745	punish_vlpfc	41.4182514441013	6	4	1	10	0	0	0	0	250	250	250	750	2000	0	BLOCKED	0.25	-1	8	-1	attentive	At this moment	5	3	13	210	VLPFC	1159.39512133598	0.534332084893883	n/a	n/a	n/a	n/a	991.522788203753	0.691006917755573	n/a	n/a	n/a	n/a	996.213930348259	4	6	0	0	1	0	0
42.4074388034344	2.6972446527481	punish_vlpfc	45.1046834561825	7	4	1	10	0	0	0	0	250	250	250	750	2000	0	BLOCKED	0.25	-1	8	-1	active	At this moment	1	3	13	210	VLPFC	1595.42444491386	0.317103620474407	n/a	n/a	n/a	n/a	966.875685557587	0.68793235972329	n/a	n/a	n/a	n/a	823.573891625616	4	7	0	0	1	0	0
46.1066919612885	2.7176495270729	punish_vlpfc	48.8243414883614	8	4	1	10	0	0	0	0	250	250	250	750	2000	0	BLOCKED	0.25	-1	6	-1	enthusiastic	At this moment	1	3	13	210	VLPFC	1047.08068585396	0.660424469413233	n/a	n/a	n/a	n/a	1037.77205882353	0.642582628747118	n/a	n/a	n/a	n/a	1079.90967741935	6	8	0	0	1	0	0
49.8285217602253	6.30168480277062	panas_none	56.1302065629959	9	5	2	10	n/a	n/a	n/a	n/a	n/a	n/a	n/a	n/a	2000	0	BLOCKED	n/a	-1	6	-1	ashamed	At this moment	1	3	13	210	NONE	n/a	0.304619225967541	n/a	n/a	n/a	n/a	634.141831238779	0.229823212913144	535.490160529732	0.548340924893448	-0.000359273930947685	16.6393355401055	699.703592814371	9	1	0	1	0	0	1
57.1190501213074	6.38367631173134	panas_none	63.5027264330387	10	5	2	10	n/a	n/a	n/a	n/a	n/a	n/a	n/a	n/a	2000	0	BLOCKED	n/a	n/a	+	0	attentive	At this moment	4	3	13	210	NONE	n/a	0.373283395755306	n/a	n/a	n/a	n/a	699.296812749004	0.488854727132975	n/a	n/a	n/a	n/a	805.533834586466	9	2	0	1	0	0	1
64.486828353405	6.22195603561401	panas_none	70.708784389019	11	5	2	10	n/a	n/a	n/a	n/a	n/a	n/a	n/a	n/a	2000	0	BLOCKED	n/a	n/a	+	0	strong	At this moment	4	3	13	210	NONE	n/a	0.383270911360799	n/a	n/a	n/a	n/a	610.506072874494	0.285933897002306	n/a	n/a	n/a	n/a	630.950484391819	11	3	0	1	0	0	1
71.6990415878296	14.9728206520081	panas_none	86.6718622398377	12	5	2	10	n/a	n/a	n/a	n/a	n/a	n/a	n/a	n/a	2000	0	BLOCKED	n/a	n/a	+	0	irritable	At this moment	1	3	13	210	NONE	n/a	0.900124843945069	n/a	n/a	n/a	n/a	909.4375	0.607225211375865	n/a	n/a	n/a	n/a	817.101761252446	28	4	0	1	0	0	1
87.6731662166119	2.75160511159896	punish_vlpfc	90.4247713282108	13	4	3	10	0	0	0	0	250	250	250	750	2000	0	BLOCKED	0.25	-1	2	1	enthusiastic	At this moment	1	3	13	210	VLPFC	304.813219070435	0.652933832709114	n/a	n/a	n/a	n/a	868.18345323741	0.674096848578017	n/a	n/a	n/a	n/a	899.429245283019	5	1	0	0	1	0	0
91.4088094248772	2.61904941582681	punish_vlpfc	94.027858840704	14	4	3	10	0	0	0	0	250	250	250	750	2000	0	BLOCKED	0.25	-1	8	-1	guilty	At this moment	3	3	13	210	VLPFC	554.402773141861	0.932584269662921	n/a	n/a	n/a	n/a	1046.64814814815	0.230591852421214	586.063752795673	0.491597186636371	-0.0001391423200803	12.134059909805	908.626373626374	3	2	0	0	1	0	0
95.0319590682983	2.74877747774124	punish_vlpfc	97.7807365460396	15	4	3	10	0	0	0	0	250	250	250	750	2000	0	BLOCKED	0.25	-1	0	1	proud	At this moment	5	3	13	210	VLPFC	420.538516521454	0.911360799001248	n/a	n/a	n/a	n/a	971.830985915493	0.189085318985396	324.076567662054	1.07878132365618	-0.000441220615186621	19.4782645748205	913.744075829384	5	3	0	0	1	0	0
98.785765566349	2.69949611067771	punish_vlpfc	101.485261677027	16	4	3	10	0	0	0	0	250	250	250	750	2000	0	BLOCKED	0.25	1	3	-1	determined	At this moment	5	3	13	210	VLPFC	476.299921751022	0.771535580524345	n/a	n/a	n/a	n/a	1033.32786885246	0.589546502690238	n/a	n/a	n/a	n/a	975.280898876405	6	4	0	0	1	0	0
102.489184185982	2.64741496634483	punish_vlpfc	105.136599152327	17	4	3	10	0	0	0	0	250	250	250	750	2000	0	BLOCKED	0.25	-1	9	-1	irritable	At this moment	4	3	13	210	VLPFC	1556.69196105003	0.679151061173533	n/a	n/a	n/a	n/a	1271.88715953307	1	n/a	n/a	n/a	n/a	n/a	5	5	0	0	1	0	0
106.12453542757	2.74836879491806	punish_vlpfc	108.872904222488	18	4	3	10	0	0	0	0	250	250	250	750	2000	0	BLOCKED	0.25	1	0	-1	distressed	At this moment	3	3	13	210	VLPFC	1217.70735645294	0.598002496878901	n/a	n/a	n/a	n/a	1103.44409937888	0.608762490392006	n/a	n/a	n/a	n/a	1064.80353634578	5	6	0	0	1	0	0
109.861917036295	2.71427533745765	punish_vlpfc	112.576192373753	19	4	3	10	0	0	0	0	250	250	250	750	2000	0	BLOCKED	0.25	1	4	-1	active	At this moment	5	3	13	210	VLPFC	1124.16200661659	0.468164794007491	n/a	n/a	n/a	n/a	865.969483568075	0.872405841660261	n/a	n/a	n/a	n/a	1177.56626506024	5	7	0	0	1	0	0
113.579843720436	2.68247001004218	punish_vlpfc	116.262313730478	20	4	3	10	0	0	0	0	250	250	250	750	2000	0	BLOCKED	0.25	-1	7	-1	scared	At this moment	4	3	13	210	VLPFC	466.400205850601	0.711610486891386	n/a	n/a	n/a	n/a	1152.03896103896	0.432744043043812	n/a	n/a	n/a	n/a	1061.42411924119	3	8	0	0	1	0	0
117.263136032581	6.38898037338257	panas_none	123.652116405964	21	5	4	10	n/a	n/a	n/a	n/a	n/a	n/a	n/a	n/a	2000	0	BLOCKED	n/a	n/a	+	0	strong	At this moment	4	3	13	210	NONE	n/a	0.430711610486891	n/a	n/a	n/a	n/a	661.743421052632	0.356648731744812	n/a	n/a	n/a	n/a	782.583034647551	11	1	0	1	0	0	1
124.65445002389	6.28644435334205	panas_none	130.940894377232	22	5	4	10	n/a	n/a	n/a	n/a	n/a	n/a	n/a	n/a	2000	0	BLOCKED	n/a	n/a	+	0	enthusiastic	At this moment	5	3	13	210	NONE	n/a	0.375780274656679	n/a	n/a	n/a	n/a	641.888	0.554189085318985	n/a	n/a	n/a	n/a	740.505172413793	8	2	0	1	0	0	1
131.92808345747	6.40212486863138	panas_none	138.330208326101	23	5	4	10	n/a	n/a	n/a	n/a	n/a	n/a	n/a	n/a	2000	0	BLOCKED	n/a	n/a	+	0	upset	At this moment	2	3	13	210	NONE	n/a	0	-487.955237460324	1.13510847950406	-0.00027395184889929	16.1023785953148	673.166042446941	0.35511145272867	n/a	n/a	n/a	n/a	609.687723480334	8	3	0	1	0	0	1
139.318339951038	7.41884172439575	panas_none	146.737181675434	24	5	4	10	n/a	n/a	n/a	n/a	n/a	n/a	n/a	n/a	2000	0	BLOCKED	n/a	n/a	+	0	proud	At this moment	1	3	13	210	NONE	n/a	0.66541822721598	n/a	n/a	n/a	n/a	689.108208955224	0.767870868562644	n/a	n/a	n/a	n/a	703.579470198675	17	4	0	1	0	0	1
147.724665895939	2.76539877414703	punish_rtpj	150.490064670086	25	3	5	10	750	250	250	250	0	0	0	0	2000	0	BLOCKED	0.25	1	6	1	nervous	At this moment	5	3	13	210	RTPJ	503.627721071243	0.419475655430712	n/a	n/a	n/a	n/a	808.834408602151	0.617217524980784	n/a	n/a	n/a	n/a	827.949799196787	4	1	0	0	1	0	0
151.490916944981	2.63544292187692	punish_rtpj	154.126359866858	26	3	5	10	750	250	250	250	0	0	0	0	2000	0	BLOCKED	0.25	1	10	1	attentive	At this moment	5	3	13	210	RTPJ	930.43999505043	0.489388264669164	n/a	n/a	n/a	n/a	860.814180929095	0.364335126825519	n/a	n/a	n/a	n/a	868.977025392987	4	2	0	0	1	0	0
155.127629639626	2.61859630322456	punish_rtpj	157.74622594285	27	3	5	10	750	250	250	250	0	0	0	0	2000	0	BLOCKED	0.25	1	3	-1	hostile	At this moment	2	3	13	210	RTPJ	1050.48061680794	0.732833957553059	n/a	n/a	n/a	n/a	1074.70560747664	0.512682551883167	n/a	n/a	n/a	n/a	947.542586750789	3	3	0	0	1	0	0
158.730381813765	2.63535300445557	punish_rtpj	161.36573481822	28	3	5	10	750	250	250	250	0	0	0	0	2000	0	BLOCKED	0.25	1	3	-1	upset	At this moment	1	3	13	210	RTPJ	862.444903373718	1	n/a	n/a	n/a	n/a	n/a	1	n/a	n/a	n/a	n/a	n/a	5	4	0	0	1	0	0
162.366603313208	2.65201591014861	punish_rtpj	165.018619223356	29	3	5	10	750	250	250	250	0	0	0	0	2000	0	BLOCKED	0.25	1	2	-1	inspired	At this moment	3	3	13	210	RTPJ	512.002369642258	1	n/a	n/a	n/a	n/a	n/a	1	n/a	n/a	n/a	n/a	n/a	4	5	0	0	1	0	0
166.008833050251	2.72941423296928	punish_rtpj	168.73824728322	30	3	5	10	750	250	250	250	0	0	0	0	2000	0	BLOCKED	0.25	1	3	-1	distressed	At this moment	3	3	13	210	RTPJ	447.540145397186	0.679151061173533	n/a	n/a	n/a	n/a	1082.65369649805	0.458109146810146	n/a	n/a	n/a	n/a	979.587234042553	4	6	0	0	1	0	0
169.727521739006	2.63037969779967	punish_rtpj	172.357901436806	31	3	5	10	750	250	250	250	0	0	0	0	2000	0	BLOCKED	0.25	1	2	-1	guilty	At this moment	3	3	13	210	RTPJ	912.059493303299	0.823970037453184	n/a	n/a	n/a	n/a	1038.23404255319	0.478093774019985	n/a	n/a	n/a	n/a	961.045655375552	6	7	0	0	1	0	0
173.344958638191	2.69947565889359	punish_rtpj	176.044434297085	32	3	5	10	750	250	250	250	0	0	0	0	2000	0	BLOCKED	0.25	1	2	-1	afraid	At this moment	5	3	13	210	RTPJ	1149.61317944527	0.415730337078652	n/a	n/a	n/a	n/a	1060.29487179487	0.716372021521906	n/a	n/a	n/a	n/a	833.967479674797	6	8	0	0	1	0	0
177.03227501297	6.2844943828583	panas_none	183.316769395828	33	5	6	10	n/a	n/a	n/a	n/a	n/a	n/a	n/a	n/a	2000	0	BLOCKED	n/a	n/a	+	0	active	At this moment	5	3	13	210	NONE	n/a	0.568039950062422	n/a	n/a	n/a	n/a	602.820809248555	0.229823212913144	939.349999372567	-0.3078260478745	5.83983895538563e-05	46.5930800367286	748.562874251497	10	1	0	1	0	0	0
184.302351248741	6.33693025970459	panas_none	190.639281508446	34	5	6	10	n/a	n/a	n/a	n/a	n/a	n/a	n/a	n/a	2000	0	BLOCKED	n/a	n/a	+	0	irritable	At this moment	2	3	13	210	NONE	n/a	0.388264669163546	n/a	n/a	n/a	n/a	686.591836734694	0.434281322059954	n/a	n/a	n/a	n/a	722.277173913043	11	2	0	1	0	0	0
191.62972065711	6.36586810731887	panas_none	197.995588764429	35	5	6	10	n/a	n/a	n/a	n/a	n/a	n/a	n/a	n/a	2000	0	BLOCKED	n/a	n/a	+	0	upset	At this moment	3	3	13	210	NONE	n/a	0.0948813982521848	-524.362138352433	1.22484056375942	-0.000291188084972362	18.4929457343458	751.234482758621	0.248270561106841	797.138641371683	-0.235821241506477	0.000109887834768627	19.7111307102062	687.890593047035	9	3	0	1	0	0	0
198.996464664459	5.92129417419432	panas_none	204.917758838654	36	5	6	10	n/a	n/a	n/a	n/a	n/a	n/a	n/a	n/a	2000	0	BLOCKED	n/a	n/a	+	0	alert	At this moment	2	3	13	210	NONE	n/a	0.545568039950062	n/a	n/a	n/a	n/a	826.85989010989	0.651037663335895	n/a	n/a	n/a	n/a	756.713656387665	13	4	0	1	0	0	0
205.9241242764	2.69659266424179	reward_rtpj	208.620716940641	37	1	7	10	750	250	250	250	0	0	0	0	2000	0	BLOCKED	0.75	1	8	1	jittery	At this moment	4	3	13	210	RTPJ	649.211548805237	0.740324594257179	n/a	n/a	n/a	n/a	997.105769230769	0.734819369715603	n/a	n/a	n/a	n/a	810.063768115942	6	1	1	0	0	0	0
209.626160285711	2.69756694412231	reward_rtpj	212.323727229834	38	1	7	10	750	250	250	250	0	0	0	0	2000	0	BLOCKED	0.75	1	7	1	determined	At this moment	2	3	13	210	RTPJ	1180.46397304535	0.601747815230961	n/a	n/a	n/a	n/a	979.043887147335	0.652574942352037	n/a	n/a	n/a	n/a	935.91592920354	6	2	1	0	0	0	0
213.332495398521	2.71107287192345	reward_rtpj	216.043568270445	39	1	7	10	750	250	250	250	0	0	0	0	2000	0	BLOCKED	0.75	-1	4	1	enthusiastic	At this moment	5	3	13	210	RTPJ	540.238862514496	0.675405742821473	n/a	n/a	n/a	n/a	991.161538461538	0.453497309761722	n/a	n/a	n/a	n/a	913.414908579466	4	3	1	0	0	0	0
217.035257445812	2.64467407608032	reward_rtpj	219.679931521893	40	1	7	10	750	250	250	250	0	0	0	0	2000	0	BLOCKED	0.75	-1	7	-1	proud	At this moment	4	3	13	210	RTPJ	966.35083937645	0.730337078651685	n/a	n/a	n/a	n/a	968.597222222222	0.40891621829362	n/a	n/a	n/a	n/a	934.729518855657	5	4	1	0	0	0	0
220.684877677441	2.64786807894706	reward_rtpj	223.332745756388	41	1	7	10	750	250	250	250	0	0	0	0	2000	0	BLOCKED	0.75	-1	4	1	irritable	At this moment	4	3	13	210	RTPJ	720.357976675034	0.751560549313358	n/a	n/a	n/a	n/a	803.944723618091	0.446579554189085	n/a	n/a	n/a	n/a	992.822222222222	5	5	1	0	0	0	0
224.322484961033	2.7465295460224	reward_rtpj	227.069014507055	42	1	7	10	750	250	250	250	0	0	0	0	2000	0	BLOCKED	0.75	1	8	1	upset	At this moment	5	3	13	210	RTPJ	708.65180516243	0.739076154806492	n/a	n/a	n/a	n/a	1077.29186602871	0.434281322059954	n/a	n/a	n/a	n/a	954.752717391304	5	6	1	0	0	0	0
228.054513142347	2.61743372559548	reward_rtpj	230.671946867943	43	1	7	10	750	250	250	250	0	0	0	0	2000	0	BLOCKED	0.75	1	7	1	afraid	At this moment	4	3	13	210	RTPJ	734.765897750854	0.754057428214732	n/a	n/a	n/a	n/a	766.690355329949	0.413528055342045	n/a	n/a	n/a	n/a	969.140235910878	5	7	1	0	0	0	0
231.678522465229	2.6129787657261	reward_rtpj	234.291501230955	44	1	7	10	750	250	250	250	0	0	0	0	2000	0	BLOCKED	0.75	-1	9	-1	determined	At this moment	2	3	13	210	RTPJ	343.51608300209	0.791510611735331	n/a	n/a	n/a	n/a	1053.80239520958	0.492697924673328	n/a	n/a	n/a	n/a	1045.72878787879	4	8	1	0	0	0	0
235.295867684364	6.41842986798287	panas_none	241.714297552347	45	5	8	10	n/a	n/a	n/a	n/a	n/a	n/a	n/a	n/a	2000	0	BLOCKED	n/a	n/a	+	0	excited	At this moment	4	3	13	210	NONE	n/a	0.394506866416979	n/a	n/a	n/a	n/a	673.682474226804	0.211375864719447	1274.28548242639	-1.19132514776957	0.000597369336004829	37.458629979043	784.150097465887	9	1	0	1	0	1	0
242.707734648943	6.32910675120351	panas_none	249.036841400146	46	5	8	10	n/a	n/a	n/a	n/a	n/a	n/a	n/a	n/a	2000	0	BLOCKED	n/a	n/a	+	0	attentive	At this moment	4	3	13	210	NONE	n/a	0.117353308364544	-911.755439585016	1.53103690162113	-0.000367187300812328	17.3275678280335	667.710042432815	0.428900845503459	n/a	n/a	n/a	n/a	744.755047106326	9	2	0	1	0	1	0
250.041793197393	6.25103316712381	panas_none	256.292826364517	47	5	8	10	n/a	n/a	n/a	n/a	n/a	n/a	n/a	n/a	2000	0	BLOCKED	n/a	n/a	+	0	proud	At this moment	3	3	13	210	NONE	n/a	0.34207240948814	n/a	n/a	n/a	n/a	688.476280834915	0.390468870099923	n/a	n/a	n/a	n/a	723.808322824716	9	3	0	1	0	1	0
257.300452759981	7.4825475857258	panas_none	264.783000345707	48	5	8	10	n/a	n/a	n/a	n/a	n/a	n/a	n/a	n/a	2000	0	BLOCKED	n/a	n/a	+	0	irritable	At this moment	4	3	13	210	NONE	n/a	1	n/a	n/a	n/a	n/a	n/a	1	n/a	n/a	n/a	n/a	n/a	17	4	0	1	0	1	0
265.778103556871	2.65817048287391	punish_rtpj	268.436274039745	49	3	9	10	750	250	250	250	0	0	0	0	2000	0	BLOCKED	0.25	-1	10	-1	scared	At this moment	4	3	13	210	RTPJ	304.736700773239	0.84769038701623	n/a	n/a	n/a	n/a	1156.56557377049	0.630284396617986	n/a	n/a	n/a	n/a	1037.56756756757	6	1	0	0	1	0	0
269.424227592945	2.6486135110855	punish_rtpj	272.072841104031	50	3	9	10	750	250	250	250	0	0	0	0	2000	0	BLOCKED	0.25	1	3	-1	afraid	At this moment	1	3	13	210	RTPJ	164.56236743927	0.881398252184769	n/a	n/a	n/a	n/a	1264.58947368421	0.231360491929285	631.396979366596	0.636931952930295	-0.000149697162666529	20.5208576439841	1065.944	3	2	0	0	1	0	0
273.060876111746	2.64778486156467	punish_rtpj	275.70866097331	51	3	9	10	750	250	250	250	0	0	0	0	2000	0	BLOCKED	0.25	1	7	1	active	At this moment	1	3	13	210	RTPJ	1008.29672002792	0.751560549313358	n/a	n/a	n/a	n/a	1098.43216080402	0.598001537279016	n/a	n/a	n/a	n/a	1082.29063097514	6	3	0	0	1	0	0
276.714104670763	2.68093859553341	punish_rtpj	279.395043266296	52	3	9	10	750	250	250	250	0	0	0	0	2000	0	BLOCKED	0.25	1	3	-1	inspired	At this moment	1	3	13	210	RTPJ	1097.76687812805	0.770287141073658	n/a	n/a	n/a	n/a	1117.47826086957	0.531129900076864	n/a	n/a	n/a	n/a	1056.12950819672	6	4	0	0	1	0	0
280.386726094484	2.64441278743743	punish_rtpj	283.031138881922	53	3	9	10	750	250	250	250	0	0	0	0	2000	0	BLOCKED	0.25	1	0	-1	ashamed	At this moment	5	3	13	210	RTPJ	937.692616939545	0.65792759051186	n/a	n/a	n/a	n/a	1114.03284671533	0.514988470407379	n/a	n/a	n/a	n/a	1066.91442155309	4	5	0	0	1	0	0
284.023112618923	2.71119769811634	punish_rtpj	286.73431031704	54	3	9	10	750	250	250	250	0	0	0	0	2000	0	BLOCKED	0.25	1	2	-1	distressed	At this moment	4	3	13	210	RTPJ	697.962933063507	0.736579275905119	n/a	n/a	n/a	n/a	1127.70616113744	0.46272098385857	n/a	n/a	n/a	n/a	955.1330472103	4	6	0	0	1	0	0
287.721673237324	2.78247812008857	punish_rtpj	290.504151357412	55	3	9	10	750	250	250	250	0	0	0	0	2000	0	BLOCKED	0.25	-1	0	1	enthusiastic	At this moment	2	3	13	210	RTPJ	563.658610582352	0.581772784019975	n/a	n/a	n/a	n/a	1111.38208955224	0.489623366641045	n/a	n/a	n/a	n/a	1029.73795180723	5	7	0	0	1	0	0
291.509553798914	2.79736877346039	punish_rtpj	294.306922572374	56	3	9	10	750	250	250	250	0	0	0	0	2000	0	BLOCKED	0.25	-1	6	-1	excited	At this moment	1	3	13	210	RTPJ	404.992348194122	0.626716604244694	n/a	n/a	n/a	n/a	1060.04347826087	0.711760184473482	n/a	n/a	n/a	n/a	921.96	6	8	0	0	1	0	0
295.312619449139	6.33381982684136	panas_none	301.64643927598	57	5	10	10	n/a	n/a	n/a	n/a	n/a	n/a	n/a	n/a	2000	0	BLOCKED	n/a	n/a	+	0	active	At this moment	5	3	13	210	NONE	n/a	0.369538077403246	n/a	n/a	n/a	n/a	660.574257425743	0.233666410453497	1407.39221071752	-1.51076665811195	0.000780574765368926	50.4175548634146	798.069207622869	7	1	0	1	0	0	0
302.647922734737	6.30433718633651	panas_none	308.952259921074	58	5	10	10	n/a	n/a	n/a	n/a	n/a	n/a	n/a	n/a	2000	0	BLOCKED	n/a	n/a	+	0	guilty	At this moment	2	3	13	210	NONE	n/a	0.373283395755306	n/a	n/a	n/a	n/a	694.272908366534	0.307455803228286	n/a	n/a	n/a	n/a	790.975582685905	9	2	0	1	0	0	0
309.953173551083	6.2551185848713	panas_none	316.208292135954	59	5	10	10	n/a	n/a	n/a	n/a	n/a	n/a	n/a	n/a	2000	0	BLOCKED	n/a	n/a	+	0	irritable	At this moment	2	3	13	210	NONE	n/a	0.807740324594257	n/a	n/a	n/a	n/a	654.220779220779	0.285165257494235	n/a	n/a	n/a	n/a	778.94623655914	11	3	0	1	0	0	0
317.197308123827	15.4076500205994	panas_none	332.604958144426	60	5	10	10	n/a	n/a	n/a	n/a	n/a	n/a	n/a	n/a	2000	0	BLOCKED	n/a	1	2	-1	inspired	At this moment	4	3	13	210	NONE	n/a	0.660424469413233	n/a	n/a	n/a	n/a	862.540441176471	0.731744811683321	n/a	n/a	n/a	n/a	941.687679083095	27	4	0	1	0	0	0
333.608769226551	2.63229969620704	reward_rtpj	336.241068922758	61	1	11	10	750	250	250	250	0	0	0	0	2000	0	BLOCKED	0.75	1	1	-1	hostile	At this moment	1	3	13	210	RTPJ	437.835779428482	1	n/a	n/a	n/a	n/a	n/a	1	n/a	n/a	n/a	n/a	n/a	5	1	1	0	0	0	0
337.229719246864	2.69799184727668	reward_rtpj	339.927711094141	62	1	11	10	750	250	250	250	0	0	0	0	2000	0	BLOCKED	0.75	1	10	1	jittery	At this moment	5	3	13	210	RTPJ	458.574934244156	1	n/a	n/a	n/a	n/a	n/a	1	n/a	n/a	n/a	n/a	n/a	4	2	1	0	0	0	0
340.928206168175	2.63563404011722	reward_rtpj	343.563840208292	63	1	11	10	750	250	250	250	0	0	0	0	2000	0	BLOCKED	0.75	-1	1	1	scared	At this moment	3	3	13	210	RTPJ	624.909906387329	1	n/a	n/a	n/a	n/a	n/a	1	n/a	n/a	n/a	n/a	n/a	4	3	1	0	0	0	0
344.552180229664	2.76488078022004	reward_rtpj	347.317061009884	64	1	11	10	750	250	250	250	0	0	0	0	2000	0	BLOCKED	0.75	1	6	1	guilty	At this moment	2	3	13	210	RTPJ	942.095037221909	0.626716604244694	n/a	n/a	n/a	n/a	974.565217391304	0.524980784012298	n/a	n/a	n/a	n/a	924.443365695793	4	4	1	0	0	0	0
348.3220290277	2.61445587682726	reward_rtpj	350.936484904528	65	1	11	10	750	250	250	250	0	0	0	0	2000	0	BLOCKED	0.75	-1	7	-1	proud	At this moment	3	3	13	210	RTPJ	1006.28750944138	0.790262172284644	n/a	n/a	n/a	n/a	967.690476190476	0.727132974634896	n/a	n/a	n/a	n/a	966.388732394366	5	5	1	0	0	0	0
351.94161406827	2.64771680641172	reward_rtpj	354.589330874681	66	1	11	10	750	250	250	250	0	0	0	0	2000	0	BLOCKED	0.75	1	10	1	alert	At this moment	4	3	13	210	RTPJ	603.323060274124	1	n/a	n/a	n/a	n/a	n/a	1	n/a	n/a	n/a	n/a	n/a	5	6	1	0	0	0	0
355.595395530462	2.68030741119384	reward_rtpj	358.275702941656	67	1	11	10	750	250	250	250	0	0	0	0	2000	0	BLOCKED	0.75	1	7	1	irritable	At this moment	5	3	13	210	RTPJ	634.195716381073	0.730337078651685	n/a	n/a	n/a	n/a	947.472222222222	0.717140661029977	n/a	n/a	n/a	n/a	847.067934782609	5	7	1	0	0	0	0
359.26294456172	2.61564066934585	reward_rtpj	361.878585231066	68	1	11	10	750	250	250	250	0	0	0	0	2000	0	BLOCKED	0.75	1	7	1	strong	At this moment	1	3	13	210	RTPJ	561.344386816025	0.702871410736579	n/a	n/a	n/a	n/a	817.100840336134	0.564181398923905	n/a	n/a	n/a	n/a	828.774250440917	4	8	1	0	0	0	0
362.884386482239	6.35015479874613	panas_none	369.234541280985	69	5	12	10	n/a	n/a	n/a	n/a	n/a	n/a	n/a	n/a	2000	0	BLOCKED	n/a	n/a	+	0	interested	At this moment	4	3	13	210	NONE	n/a	0.173533083645443	-2429.81018710865	2.93263775424513	-0.000673467067458716	16.3306859231974	727.981873111783	0.330514988470407	n/a	n/a	n/a	n/a	794.362801377727	10	1	0	1	0	1	0
370.240853826284	6.29966113543509	panas_none	376.54051496172	70	5	12	10	n/a	n/a	n/a	n/a	n/a	n/a	n/a	n/a	2000	0	BLOCKED	n/a	n/a	+	0	attentive	At this moment	4	3	13	210	NONE	n/a	0.196004993757803	-2747.09731329771	3.10602885902563	-0.000699681604565838	16.9683245878707	668.062111801242	0.432744043043812	n/a	n/a	n/a	n/a	717.922764227642	8	2	0	1	0	1	0
377.545309139252	6.20097181177141	panas_none	383.746280951023	71	5	12	10	n/a	n/a	n/a	n/a	n/a	n/a	n/a	n/a	2000	0	BLOCKED	n/a	n/a	+	0	excited	At this moment	4	3	13	210	NONE	n/a	0.543071161048689	n/a	n/a	n/a	n/a	642.767759562842	0.230591852421214	663.206406045035	-0.124889231076714	6.48867612708144e-05	21.5740339853479	606.859140859141	8	3	0	1	0	1	0
384.747325754642	12.0784776828289	panas_none	396.825803437471	72	5	12	10	n/a	n/a	n/a	n/a	n/a	n/a	n/a	n/a	2000	0	BLOCKED	n/a	n/a	+	0	hostile	At this moment	4	3	13	210	NONE	n/a	0.711610486891386	n/a	n/a	n/a	n/a	943.718614718615	0.659492697924673	n/a	n/a	n/a	n/a	612.442437923251	25	4	0	1	0	1	0
397.829292227745	2.71406517767906	reward_vlpfc	400.543357405424	73	2	13	10	0	0	0	0	250	250	250	750	2000	0	BLOCKED	0.75	1	9	1	guilty	At this moment	2	3	13	210	VLPFC	602.555061101913	0.779026217228464	n/a	n/a	n/a	n/a	1167.44632768362	0.47271329746349	n/a	n/a	n/a	n/a	1103.97376093294	4	1	1	0	0	0	0
401.527580626011	2.78576415586474	reward_vlpfc	404.313344781876	74	2	13	10	0	0	0	0	250	250	250	750	2000	0	BLOCKED	0.75	1	6	1	strong	At this moment	3	3	13	210	VLPFC	1016.76163816452	0.694132334581773	n/a	n/a	n/a	n/a	1024.25306122449	0.463489623366641	n/a	n/a	n/a	n/a	974.032951289398	7	2	1	0	0	0	0
405.300510589361	2.51526442718506	reward_vlpfc	407.815775016546	75	2	13	10	0	0	0	0	250	250	250	750	2000	0	BLOCKED	0.75	-1	1	1	upset	At this moment	5	3	13	210	VLPFC	874.629575967789	0.734082397003745	n/a	n/a	n/a	n/a	1114.32863849765	0.46272098385857	n/a	n/a	n/a	n/a	1036.97854077253	5	3	1	0	0	0	0
408.82053216958	2.6815701317787	reward_vlpfc	411.502102301359	76	2	13	10	0	0	0	0	250	250	250	750	2000	0	BLOCKED	0.75	1	7	1	attentive	At this moment	2	3	13	210	VLPFC	810.121864318848	0.664169787765293	n/a	n/a	n/a	n/a	984.851301115242	0.464258262874712	n/a	n/a	n/a	n/a	1054.93543758967	5	4	1	0	0	0	0
412.506801625013	2.68171188378335	reward_vlpfc	415.188513508797	77	2	13	10	0	0	0	0	250	250	250	750	2000	0	BLOCKED	0.75	1	3	-1	jittery	At this moment	1	3	13	210	VLPFC	553.722222566605	0.882646691635456	n/a	n/a	n/a	n/a	1085.60638297872	0.428132205995388	n/a	n/a	n/a	n/a	986.90188172043	4	5	1	0	0	0	0
416.193770672321	2.64772950053214	reward_vlpfc	418.841500172853	78	2	13	10	0	0	0	0	250	250	250	750	2000	0	BLOCKED	0.75	1	6	1	inspired	At this moment	3	3	13	210	VLPFC	666.526090145111	0.784019975031211	n/a	n/a	n/a	n/a	978.387283236994	0.521906225980015	n/a	n/a	n/a	n/a	1092.14951768489	5	6	1	0	0	0	0
419.830559180021	2.73114170241354	reward_vlpfc	422.561700882435	79	2	13	10	0	0	0	0	250	250	250	750	2000	0	BLOCKED	0.75	-1	10	-1	ashamed	At this moment	2	3	13	210	VLPFC	735.662601947784	0.784019975031211	n/a	n/a	n/a	n/a	1097.13294797688	0.411990776325903	n/a	n/a	n/a	n/a	982.614379084967	4	7	1	0	0	0	0
423.56533706665	2.79902995109558	reward_vlpfc	426.364367017746	80	2	13	10	0	0	0	0	250	250	250	750	2000	0	BLOCKED	0.75	1	6	1	alert	At this moment	5	3	13	210	VLPFC	492.708943128586	0.635455680399501	n/a	n/a	n/a	n/a	960.513698630137	0.459646425826287	n/a	n/a	n/a	n/a	993.220483641536	5	8	1	0	0	0	0
427.365206950903	6.27163374400141	panas_none	433.636840694904	81	5	14	10	n/a	n/a	n/a	n/a	n/a	n/a	n/a	n/a	2000	0	BLOCKED	n/a	n/a	+	0	active	At this moment	4	3	13	210	NONE	n/a	0.373283395755306	n/a	n/a	n/a	n/a	700.603585657371	0.249039200614912	773.406904510559	-0.0176951627593287	-7.45617051396097e-05	32.7662271141761	688.252814738997	7	1	0	1	0	1	1
434.625701531172	6.38398062014579	panas_none	441.009682151318	82	5	14	10	n/a	n/a	n/a	n/a	n/a	n/a	n/a	n/a	2000	0	BLOCKED	n/a	n/a	+	0	distressed	At this moment	1	3	13	210	NONE	n/a	0.382022471910112	n/a	n/a	n/a	n/a	669.50303030303	0.435818601076095	n/a	n/a	n/a	n/a	790.24931880109	9	2	0	1	0	1	1
442.014265464306	6.26818092036245	panas_none	448.282446384668	83	5	14	10	n/a	n/a	n/a	n/a	n/a	n/a	n/a	n/a	2000	0	BLOCKED	n/a	n/a	+	0	upset	At this moment	3	3	13	210	NONE	n/a	0.81398252184769	n/a	n/a	n/a	n/a	641.134228187919	0.159877017678709	926.320415910943	-0.555146462877848	0.000349190358165219	12.8269615798937	736.620311070448	10	3	0	1	0	1	1
449.287121730566	10.7381062364578	panas_none	460.025227967024	84	5	14	10	n/a	n/a	n/a	n/a	n/a	n/a	n/a	n/a	2000	0	BLOCKED	n/a	n/a	+	0	scared	At this moment	5	3	13	210	NONE	n/a	0.614232209737828	n/a	n/a	n/a	n/a	1045.33333333333	0.568024596464258	n/a	n/a	n/a	n/a	844.081850533808	19	4	0	1	0	1	1
461.012680099249	2.7154802289009	reward_vlpfc	463.72816032815	85	2	15	10	0	0	0	0	250	250	250	750	2000	0	BLOCKED	0.75	1	8	1	inspired	At this moment	2	3	13	210	VLPFC	780.609251260757	0.524344569288389	n/a	n/a	n/a	n/a	857.582677165354	0.697924673328209	n/a	n/a	n/a	n/a	539.160305343511	6	1	1	0	0	0	0
464.714978455305	2.64939737796789	reward_vlpfc	467.364375833273	86	2	15	10	0	0	0	0	250	250	250	750	2000	0	BLOCKED	0.75	1	9	1	determined	At this moment	1	3	13	210	VLPFC	579.040812015533	0.695380774032459	n/a	n/a	n/a	n/a	1035.07786885246	0.475019215987702	n/a	n/a	n/a	n/a	972.133235724744	6	2	1	0	0	0	0
468.366098366022	2.73454128098484	reward_vlpfc	471.100639647007	87	2	15	10	0	0	0	0	250	250	250	750	2000	0	BLOCKED	0.75	1	0	-1	distressed	At this moment	3	3	13	210	VLPFC	1208.86090707779	0.384519350811486	n/a	n/a	n/a	n/a	1119.95334685598	0.784012298232129	n/a	n/a	n/a	n/a	849.761565836299	6	3	1	0	0	0	0
472.084747561693	2.76907445168496	reward_vlpfc	474.853822013378	88	2	15	10	0	0	0	0	250	250	250	750	2000	0	BLOCKED	0.75	-1	3	1	enthusiastic	At this moment	1	3	13	210	VLPFC	1118.79800009727	1	n/a	n/a	n/a	n/a	n/a	1	n/a	n/a	n/a	n/a	n/a	6	4	1	0	0	0	0
475.854641494751	2.75227226233483	reward_vlpfc	478.606913757086	89	2	15	10	0	0	0	0	250	250	250	750	2000	0	BLOCKED	0.75	1	10	1	ashamed	At this moment	5	3	13	210	VLPFC	811.465334177017	0.620474406991261	n/a	n/a	n/a	n/a	997.200657894737	0.447348193697156	n/a	n/a	n/a	n/a	936.909596662031	6	5	1	0	0	0	0
479.61214517951	2.61421856617932	reward_vlpfc	482.226363745689	90	2	15	10	0	0	0	0	250	250	250	750	2000	0	BLOCKED	0.75	1	10	1	interested	At this moment	2	3	13	210	VLPFC	471.922889709473	0.83270911360799	n/a	n/a	n/a	n/a	958.350746268657	0.528823981552652	n/a	n/a	n/a	n/a	1049.98531810767	6	6	1	0	0	0	0
483.21050198555	2.73575992441181	reward_vlpfc	485.946261909962	91	2	15	10	0	0	0	0	250	250	250	750	2000	0	BLOCKED	0.75	-1	8	-1	active	At this moment	3	3	13	210	VLPFC	324.127449512482	0.830212234706617	n/a	n/a	n/a	n/a	1068.25	0.468101460415065	n/a	n/a	n/a	n/a	1023.25867052023	4	7	1	0	0	0	0
486.935074790239	2.64730530261994	reward_vlpfc	489.582380092859	92	2	15	10	0	0	0	0	250	250	250	750	2000	0	BLOCKED	0.75	1	10	1	determined	At this moment	3	3	13	210	VLPFC	1033.41079139709	1	n/a	n/a	n/a	n/a	n/a	1	n/a	n/a	n/a	n/a	n/a	7	8	1	0	0	0	0
490.571077667475	6.33388788199426	panas_none	496.904965549469	93	5	16	10	n/a	n/a	n/a	n/a	n/a	n/a	n/a	n/a	2000	0	BLOCKED	n/a	n/a	+	0	upset	At this moment	2	3	13	210	NONE	n/a	1	n/a	n/a	n/a	n/a	n/a	1	n/a	n/a	n/a	n/a	n/a	9	1	0	1	0	1	1
497.911473444462	6.39949223184584	panas_none	504.310965676308	94	5	16	10	n/a	n/a	n/a	n/a	n/a	n/a	n/a	n/a	2000	0	BLOCKED	n/a	n/a	+	0	hostile	At this moment	1	3	13	210	NONE	n/a	0.289637952559301	n/a	n/a	n/a	n/a	613.546572934974	0.394312067640277	n/a	n/a	n/a	n/a	618.848984771574	6	2	0	1	0	1	1
505.295071475506	6.3220452477932	panas_none	511.617116723299	95	5	16	10	n/a	n/a	n/a	n/a	n/a	n/a	n/a	n/a	2000	0	BLOCKED	n/a	n/a	+	0	nervous	At this moment	2	3	13	210	NONE	n/a	0.424469413233458	n/a	n/a	n/a	n/a	576.906724511931	0.520368946963874	n/a	n/a	n/a	n/a	620.512820512821	9	3	0	1	0	1	1
512.601058555841	8.05647792243963	panas_none	520.657536478281	96	5	16	10	n/a	n/a	n/a	n/a	n/a	n/a	n/a	n/a	2000	0	BLOCKED	n/a	n/a	+	0	ashamed	At this moment	5	3	13	210	NONE	n/a	0.15230961298377	-5911.51201421535	6.50089207542144	-0.00150561795449553	30.05291097117	1026.70839469809	0.684089162182936	n/a	n/a	n/a	n/a	888.486618004866	13	4	0	1	0	1	1
