onset	duration	trial_type	offset	trial	block	blockCntr	frequency	amplitude_1	amplitude_2	amplitude_3	amplitude_4	amplitude_5	amplitude_6	amplitude_7	amplitude_8	transition	sham	mode	rewardFraction	guess	outcome	correct	word	when	answer	runNr	scanNr	subjectNr	target	reactionTime	outcomeEyeClosed	outcomeParms_1	outcomeParms_2	outcomeParms_3	outcomeSigma	outcomePupilArea	guessEyeClosed	guessParms_1	guessParms_2	guessParms_3	guessSigma	guessPupilArea	nrBlinks	trialInBlock	isReward	isPanas	isPunish	beforePanasReward	beforePanasVLPFC
20.5258408148289	2.55985175991059	reward_vlpfc	23.0856925747395	1	2	1	10	0	0	0	0	250	250	250	750	2000	0	BLOCKED	0.75	1	8	1	determined	At this moment	2	2	9	210	VLPFC	-31177.2251882553	0.807740324594257	n/a	n/a	n/a	n/a	887.649350649351	0.436587240584166	n/a	n/a	n/a	n/a	789.206002728513	6	1	1	0	0	0	0
24.0907029066086	2.61418013048172	reward_vlpfc	26.7048830370903	2	2	1	10	0	0	0	0	250	250	250	750	2000	0	BLOCKED	0.75	1	7	1	afraid	At this moment	4	2	9	210	VLPFC	474.910964250565	0.749063670411985	n/a	n/a	n/a	n/a	1028.17910447761	0.461183704842429	n/a	n/a	n/a	n/a	1074.70613409415	4	2	1	0	0	0	0
27.6911271045208	2.60026305198669	reward_vlpfc	30.2913901565075	3	2	1	10	0	0	0	0	250	250	250	750	2000	0	BLOCKED	0.75	1	7	1	scared	At this moment	1	2	9	210	VLPFC	601.465475320816	0.408239700374532	n/a	n/a	n/a	n/a	925.426160337553	0.461183704842429	n/a	n/a	n/a	n/a	970.58059914408	5	3	1	0	0	0	0
31.2964752428532	2.79795834898949	reward_vlpfc	34.0944335918427	4	2	1	10	0	0	0	0	250	250	250	750	2000	0	BLOCKED	0.75	-1	2	1	interested	At this moment	4	2	9	210	VLPFC	1246.7474629879	0.404494382022472	n/a	n/a	n/a	n/a	1052.91614255765	0.788624135280553	n/a	n/a	n/a	n/a	898.825454545455	5	4	1	0	0	0	0
35.0951039164066	2.63554271221161	reward_vlpfc	37.7306466286182	5	2	1	10	0	0	0	0	250	250	250	750	2000	0	BLOCKED	0.75	-1	10	-1	hostile	At this moment	1	2	9	210	VLPFC	645.963948249817	0.766541822721598	n/a	n/a	n/a	n/a	1001.2513368984	0.48424289008455	n/a	n/a	n/a	n/a	935.418777943368	4	5	1	0	0	0	0
38.7357123212814	2.76474925422669	reward_vlpfc	41.5004615755081	6	2	1	10	0	0	0	0	250	250	250	750	2000	0	BLOCKED	0.75	1	9	1	determined	At this moment	1	2	9	210	VLPFC	1165.99152302742	0.374531835205993	n/a	n/a	n/a	n/a	945.950099800399	0.464258262874712	n/a	n/a	n/a	n/a	1047.35007173601	3	6	1	0	0	0	0
42.5178413507938	2.60200815248489	reward_vlpfc	45.1198495032787	7	2	1	10	0	0	0	0	250	250	250	750	2000	0	BLOCKED	0.75	1	7	1	active	At this moment	5	2	9	210	VLPFC	562.308793783188	0.374531835205993	n/a	n/a	n/a	n/a	908.459081836327	0.428132205995388	n/a	n/a	n/a	n/a	946.896505376344	3	7	1	0	0	0	0
46.1249627990723	2.63155673265457	reward_vlpfc	48.7565195317268	8	2	1	10	0	0	0	0	250	250	250	750	2000	0	BLOCKED	0.75	-1	6	-1	interested	At this moment	2	2	9	210	VLPFC	370.985281944275	0.619225967540574	n/a	n/a	n/a	n/a	988.075409836066	0.432744043043812	n/a	n/a	n/a	n/a	1004.69918699187	3	8	1	0	0	0	0
49.7637517015934	6.26505179929733	panas_none	56.0288035008907	9	5	2	10	n/a	n/a	n/a	n/a	n/a	n/a	n/a	n/a	2000	0	BLOCKED	n/a	n/a	+	0	strong	At this moment	4	2	9	210	NONE	n/a	0.374531835205993	n/a	n/a	n/a	n/a	684.141716566866	0.351268255188317	n/a	n/a	n/a	n/a	685.611374407583	11	1	0	1	0	1	1
57.0155278320313	6.40249582147598	panas_none	63.4180236535072	10	5	2	10	n/a	n/a	n/a	n/a	n/a	n/a	n/a	n/a	2000	0	BLOCKED	n/a	n/a	+	0	ashamed	At this moment	1	2	9	210	NONE	n/a	0.556803995006242	n/a	n/a	n/a	n/a	763.267605633803	0	759.798258579795	-0.16597705937342	0.000137788466097503	15.1734702556208	735.136817832437	9	2	0	1	0	1	1
64.4231986575127	6.33421369981765	panas_none	70.7574123573303	11	5	2	10	n/a	n/a	n/a	n/a	n/a	n/a	n/a	n/a	2000	0	BLOCKED	n/a	n/a	+	0	attentive	At this moment	5	2	9	210	NONE	n/a	0.558052434456929	n/a	n/a	n/a	n/a	657.745762711864	0.381245196003075	n/a	n/a	n/a	n/a	684.131677018634	10	3	0	1	0	1	1
71.747363484621	12.3043082716465	panas_none	84.0516717562676	12	5	2	10	n/a	n/a	n/a	n/a	n/a	n/a	n/a	n/a	2000	0	BLOCKED	n/a	n/a	+	0	determined	At this moment	5	2	9	210	NONE	n/a	0.659176029962547	n/a	n/a	n/a	n/a	756.860805860806	0.468870099923136	n/a	n/a	n/a	n/a	626.279305354559	18	4	0	1	0	1	1
85.057053393364	2.68083527851104	reward_rtpj	87.737888671875	13	1	3	10	750	250	250	250	0	0	0	0	2000	0	BLOCKED	0.75	1	7	1	afraid	At this moment	5	2	9	210	RTPJ	1103.2867410183	0.548064918851436	n/a	n/a	n/a	n/a	650.049723756906	0.530361260568793	n/a	n/a	n/a	n/a	554.872340425532	5	1	1	0	0	0	0
88.744236479044	2.66356269884109	reward_rtpj	91.4077991778851	14	1	3	10	750	250	250	250	0	0	0	0	2000	0	BLOCKED	0.75	1	9	1	hostile	At this moment	5	2	9	210	RTPJ	1456.73850655556	0.448189762796504	n/a	n/a	n/a	n/a	1018.09954751131	0.27978478093774	n/a	n/a	n/a	n/a	822.553895410886	3	2	1	0	0	0	0
92.3940122148991	2.78336036729813	reward_rtpj	95.1773725821972	15	1	3	10	750	250	250	250	0	0	0	0	2000	0	BLOCKED	0.75	1	6	1	alert	At this moment	1	2	9	210	RTPJ	567.51094865799	0.734082397003745	n/a	n/a	n/a	n/a	927.399061032864	0.230591852421214	621.903851211626	0.664490069122204	-0.000215167091798535	13.1945576474514	1045.26073926074	3	3	1	0	0	0	0
96.1629671292305	2.58386460924149	reward_rtpj	98.746831738472	16	1	3	10	750	250	250	250	0	0	0	0	2000	0	BLOCKED	0.75	-1	7	-1	irritable	At this moment	3	2	9	210	RTPJ	725.040022134781	0.374531835205993	n/a	n/a	n/a	n/a	1096.20558882236	0.461183704842429	n/a	n/a	n/a	n/a	1092.14122681883	3	4	1	0	0	0	0
99.7521788191795	2.63091814351083	reward_rtpj	102.38309696269	17	1	3	10	750	250	250	250	0	0	0	0	2000	0	BLOCKED	0.75	-1	1	1	strong	At this moment	2	2	9	210	RTPJ	740.861583709717	0.707865168539326	n/a	n/a	n/a	n/a	1072.27777777778	0.450422751729439	n/a	n/a	n/a	n/a	1016.51888111888	4	5	1	0	0	0	0
103.387894313812	2.63172986721993	reward_rtpj	106.019624181032	18	1	3	10	750	250	250	250	0	0	0	0	2000	0	BLOCKED	0.75	1	10	1	afraid	At this moment	4	2	9	210	RTPJ	546.40260386467	0.755305867665418	n/a	n/a	n/a	n/a	891.132653061224	0.231360491929285	483.407635781445	1.03203851378476	-0.000433090337850021	24.7308748935798	1034.709	4	6	1	0	0	0	0
107.007873579979	2.64781800746917	reward_rtpj	109.655691587448	19	1	3	10	750	250	250	250	0	0	0	0	2000	0	BLOCKED	0.75	1	1	-1	alert	At this moment	4	2	9	210	RTPJ	828.645528554916	0.374531835205993	n/a	n/a	n/a	n/a	992.858283433134	0.471176018447348	n/a	n/a	n/a	n/a	904.372093023256	4	7	1	0	0	0	0
110.660500222445	2.59836597371101	reward_rtpj	113.258866196156	20	1	3	10	750	250	250	250	0	0	0	0	2000	0	BLOCKED	0.75	1	10	1	proud	At this moment	1	2	9	210	RTPJ	976.19589972496	0.598002496878901	n/a	n/a	n/a	n/a	879.686335403727	0.523443504996157	n/a	n/a	n/a	n/a	967.246774193548	4	8	1	0	0	0	0
114.262555625439	6.3853847401142	panas_none	120.647940365553	21	5	4	10	n/a	n/a	n/a	n/a	n/a	n/a	n/a	n/a	2000	0	BLOCKED	n/a	n/a	+	0	hostile	At this moment	1	2	9	210	NONE	n/a	0.632958801498127	n/a	n/a	n/a	n/a	691.28231292517	0.206764027671022	581.143593072474	0.575258414434521	-0.000443912947132105	18.5476302896352	729.392441860465	8	1	0	1	0	1	0
121.633904102564	6.45358082318305	panas_none	128.087484925747	22	5	4	10	n/a	n/a	n/a	n/a	n/a	n/a	n/a	n/a	2000	0	BLOCKED	n/a	n/a	+	0	attentive	At this moment	5	2	9	210	NONE	n/a	0.212234706616729	-2699.58021350855	2.97103921592787	-0.000657908418324678	7.6673256853507	627.78763866878	0.382013835511145	n/a	n/a	n/a	n/a	644.417910447761	8	2	0	1	0	1	0
129.075948010206	6.40092279815676	panas_none	135.476870808363	23	5	4	10	n/a	n/a	n/a	n/a	n/a	n/a	n/a	n/a	2000	0	BLOCKED	n/a	n/a	+	0	determined	At this moment	5	2	9	210	NONE	n/a	0	698.651355704003	-0.102629075797923	2.11766347422009e-05	7.0135775909975	577.456928838951	0.229823212913144	570.446395648055	-0.0214859721353603	3.00589286662157e-05	10.8611454856035	571.822355289421	7	3	0	1	0	1	0
136.477552769184	11.9763168475628	panas_none	148.453869616747	24	5	4	10	n/a	n/a	n/a	n/a	n/a	n/a	n/a	n/a	2000	0	BLOCKED	n/a	1	3	-1	inspired	At this moment	3	2	9	210	NONE	n/a	1	n/a	n/a	n/a	n/a	n/a	0.996156802459646	n/a	n/a	n/a	n/a	184	10	4	0	1	0	1	0
149.456127774239	2.61739070653917	reward_rtpj	152.073518480778	25	1	5	10	750	250	250	250	0	0	0	0	2000	0	BLOCKED	0.75	1	10	1	excited	At this moment	1	2	9	210	RTPJ	955.608722448349	0.749063670411985	n/a	n/a	n/a	n/a	1155.82587064677	0.630284396617986	n/a	n/a	n/a	n/a	1083.12266112266	5	1	1	0	0	0	0
153.078470278025	2.664865265131	reward_rtpj	155.743335543156	26	1	5	10	750	250	250	250	0	0	0	0	2000	0	BLOCKED	0.75	1	0	-1	ashamed	At this moment	5	2	9	210	RTPJ	375.430368900299	0.503121098626717	n/a	n/a	n/a	n/a	1265.09798994975	0.680245964642583	n/a	n/a	n/a	n/a	978.836538461538	3	2	1	0	0	0	0
156.748412519455	2.68115016555788	reward_rtpj	159.429562685013	27	1	5	10	750	250	250	250	0	0	0	0	2000	0	BLOCKED	0.75	1	6	1	afraid	At this moment	4	2	9	210	RTPJ	40.1034576892853	0.399500624219725	n/a	n/a	n/a	n/a	989.276507276507	0.476556495003843	n/a	n/a	n/a	n/a	1061.90748898678	4	3	1	0	0	0	0
160.431867740631	2.75102153062821	reward_rtpj	163.182889271259	28	1	5	10	750	250	250	250	0	0	0	0	2000	0	BLOCKED	0.75	1	10	1	alert	At this moment	4	2	9	210	RTPJ	1117.6594004631	0.374531835205993	n/a	n/a	n/a	n/a	992.293413173653	0.632590315142198	n/a	n/a	n/a	n/a	1076.61506276151	3	4	1	0	0	0	0
164.168244039297	2.66751094865799	reward_rtpj	166.835754987955	29	1	5	10	750	250	250	250	0	0	0	0	2000	0	BLOCKED	0.75	-1	3	1	interested	At this moment	3	2	9	210	RTPJ	472.127759933472	1	n/a	n/a	n/a	n/a	n/a	1	n/a	n/a	n/a	n/a	n/a	5	5	1	0	0	0	0
167.840913771152	2.69753591418268	reward_rtpj	170.538449685335	30	1	5	10	750	250	250	250	0	0	0	0	2000	0	BLOCKED	0.75	1	6	1	inspired	At this moment	3	2	9	210	RTPJ	652.752526760101	1	n/a	n/a	n/a	n/a	n/a	1	n/a	n/a	n/a	n/a	n/a	5	6	1	0	0	0	0
171.527688174009	2.73045480513574	reward_rtpj	174.258142979145	31	1	5	10	750	250	250	250	0	0	0	0	2000	0	BLOCKED	0.75	1	6	1	active	At this moment	5	2	9	210	RTPJ	1292.15780305862	0.374531835205993	n/a	n/a	n/a	n/a	1002.59680638723	0.46272098385857	n/a	n/a	n/a	n/a	1082.1330472103	4	7	1	0	0	0	0
175.258954702854	2.71889179635048	reward_rtpj	177.977846499205	32	1	5	10	750	250	250	250	0	0	0	0	2000	0	BLOCKED	0.75	1	1	-1	upset	At this moment	1	2	9	210	RTPJ	824.915195941925	0.374531835205993	n/a	n/a	n/a	n/a	1056.34930139721	0.461183704842429	n/a	n/a	n/a	n/a	1002.52924393723	4	8	1	0	0	0	0
178.983229546547	6.45261394834517	panas_none	185.435843494892	33	5	6	10	n/a	n/a	n/a	n/a	n/a	n/a	n/a	n/a	2000	0	BLOCKED	n/a	n/a	+	0	hostile	At this moment	1	2	9	210	NONE	n/a	0.647940074906367	n/a	n/a	n/a	n/a	604.574468085106	0.372790161414297	n/a	n/a	n/a	n/a	762.357843137255	9	1	0	1	0	1	0
186.439550907373	6.41708005118372	panas_none	192.856630958557	34	5	6	10	n/a	n/a	n/a	n/a	n/a	n/a	n/a	n/a	2000	0	BLOCKED	n/a	n/a	+	0	interested	At this moment	5	2	9	210	NONE	n/a	0.161048689138577	2266.55232381159	-1.46985851850677	0.000334275299030185	8.82307150686748	672.230654761905	0.48424289008455	n/a	n/a	n/a	n/a	826.874813710879	7	2	0	1	0	1	0
193.845243552446	6.38430573296546	panas_none	200.229549285412	35	5	6	10	n/a	n/a	n/a	n/a	n/a	n/a	n/a	n/a	2000	0	BLOCKED	n/a	n/a	+	0	strong	At this moment	4	2	9	210	NONE	n/a	0.405742821473159	n/a	n/a	n/a	n/a	686.203781512605	0.230591852421214	825.776160315703	-0.597158957640259	0.00033418409537089	17.9332590263754	609.861138861139	7	3	0	1	0	1	0
201.21797710824	14.4239056539536	panas_none	215.641882762194	36	5	6	10	n/a	n/a	n/a	n/a	n/a	n/a	n/a	n/a	2000	0	BLOCKED	n/a	1	4	-1	guilty	At this moment	3	2	9	210	NONE	n/a	1	n/a	n/a	n/a	n/a	n/a	1	n/a	n/a	n/a	n/a	n/a	8	4	0	1	0	1	0
216.644274561644	2.80085509586334	punish_vlpfc	219.445129657507	37	4	7	10	0	0	0	0	250	250	250	750	2000	0	BLOCKED	0.25	1	10	1	alert	At this moment	5	2	9	210	VLPFC	822.348145723343	0.474406991260924	n/a	n/a	n/a	n/a	1370.70308788599	0.644119907763259	n/a	n/a	n/a	n/a	1192.34125269978	5	1	0	0	1	0	0
220.434493324995	2.73003095984461	punish_vlpfc	223.16452428484	38	4	7	10	0	0	0	0	250	250	250	750	2000	0	BLOCKED	0.25	-1	8	-1	irritable	At this moment	2	2	9	210	VLPFC	590.157408237457	0.374531835205993	n/a	n/a	n/a	n/a	1327.96806387226	0.466564181398924	n/a	n/a	n/a	n/a	1242.54899135447	4	2	0	0	1	0	0
224.148759141922	2.70261676883698	punish_vlpfc	226.851375910759	39	4	7	10	0	0	0	0	250	250	250	750	2000	0	BLOCKED	0.25	1	3	-1	proud	At this moment	3	2	9	210	VLPFC	936.509234666824	1	n/a	n/a	n/a	n/a	n/a	1	n/a	n/a	n/a	n/a	n/a	4	3	0	0	1	0	0
227.85767646718	2.6464971051216	punish_vlpfc	230.504173572302	40	4	7	10	0	0	0	0	250	250	250	750	2000	0	BLOCKED	0.25	1	8	1	upset	At this moment	5	2	9	210	VLPFC	1056.39505791664	0.470661672908864	n/a	n/a	n/a	n/a	1107.38679245283	0.718677940046118	n/a	n/a	n/a	n/a	1082.84699453552	5	4	0	0	1	0	0
231.489486026049	2.66731665682792	punish_vlpfc	234.156802682877	41	4	7	10	0	0	0	0	250	250	250	750	2000	0	BLOCKED	0.25	1	0	-1	jittery	At this moment	4	2	9	210	VLPFC	682.965789079666	0.573033707865168	n/a	n/a	n/a	n/a	1115.80701754386	0.501152959262106	n/a	n/a	n/a	n/a	1039.92758089368	4	5	0	0	1	0	0
235.141016030073	2.65225851035117	punish_vlpfc	237.793274540424	42	4	7	10	0	0	0	0	250	250	250	750	2000	0	BLOCKED	0.25	-1	8	-1	guilty	At this moment	2	2	9	210	VLPFC	964.256295919418	0.451935081148564	n/a	n/a	n/a	n/a	1105.68109339408	0.712528823981553	n/a	n/a	n/a	n/a	879.328877005348	4	6	0	0	1	0	0
238.778631071329	2.70079021406173	punish_vlpfc	241.479421285391	43	4	7	10	0	0	0	0	250	250	250	750	2000	0	BLOCKED	0.25	-1	6	-1	ashamed	At this moment	5	2	9	210	VLPFC	1267.86568117142	0.690387016229713	n/a	n/a	n/a	n/a	1219.82258064516	0.52728670253651	n/a	n/a	n/a	n/a	1189.91544715447	4	7	0	0	1	0	0
242.463604660273	2.66881915688515	punish_vlpfc	245.132423817158	44	4	7	10	0	0	0	0	250	250	250	750	2000	0	BLOCKED	0.25	1	2	-1	irritable	At this moment	1	2	9	210	VLPFC	1257.62639546394	0.441947565543071	n/a	n/a	n/a	n/a	1191.09395973154	0.452728670253651	n/a	n/a	n/a	n/a	1025.48174157303	4	8	0	0	1	0	0
246.121345656395	6.28369605827331	panas_none	252.405041714668	45	5	8	10	n/a	n/a	n/a	n/a	n/a	n/a	n/a	n/a	2000	0	BLOCKED	n/a	n/a	+	0	active	At this moment	4	2	9	210	NONE	n/a	0.373283395755306	n/a	n/a	n/a	n/a	727.348605577689	0.459646425826287	n/a	n/a	n/a	n/a	924.086770981508	9	1	0	1	0	0	1
253.409926162243	6.35127047824861	panas_none	259.761196640492	46	5	8	10	n/a	n/a	n/a	n/a	n/a	n/a	n/a	n/a	2000	0	BLOCKED	n/a	n/a	+	0	interested	At this moment	5	2	9	210	NONE	n/a	0.16354556803995	-10929.4067097376	10.9819827719313	-0.00253490925309039	53.9484876058556	869.461194029851	0.351268255188317	n/a	n/a	n/a	n/a	758.624407582938	6	2	0	1	0	0	1
260.766980965853	6.26655465197564	panas_none	267.033535617828	47	5	8	10	n/a	n/a	n/a	n/a	n/a	n/a	n/a	n/a	2000	0	BLOCKED	n/a	-1	7	-1	scared	At this moment	2	2	9	210	NONE	n/a	0.373283395755306	n/a	n/a	n/a	n/a	621.414342629482	0.298232129131437	n/a	n/a	n/a	n/a	657.472070098576	9	3	0	1	0	0	1
268.0198308146	8.82179735803606	panas_none	276.841628172636	48	5	8	10	n/a	n/a	n/a	n/a	n/a	n/a	n/a	n/a	2000	0	BLOCKED	n/a	n/a	+	0	attentive	At this moment	2	2	9	210	NONE	n/a	0.519350811485643	n/a	n/a	n/a	n/a	782.644155844156	0.79554189085319	n/a	n/a	n/a	n/a	551.244360902256	12	4	0	1	0	0	1
277.829955147505	2.61453345251084	punish_rtpj	280.444488600016	49	3	9	10	750	250	250	250	0	0	0	0	2000	0	BLOCKED	0.25	1	4	-1	afraid	At this moment	1	2	9	210	RTPJ	804.255026340485	0.480649188514357	n/a	n/a	n/a	n/a	883.009615384615	0.800922367409685	n/a	n/a	n/a	n/a	761.915057915058	4	1	0	0	1	0	0
281.434536344528	2.61303835749624	punish_rtpj	284.047574702024	50	3	9	10	750	250	250	250	0	0	0	0	2000	0	BLOCKED	0.25	-1	8	-1	proud	At this moment	5	2	9	210	RTPJ	1114.09444475174	1	n/a	n/a	n/a	n/a	n/a	1	n/a	n/a	n/a	n/a	n/a	4	2	0	0	1	0	0
285.057045635939	2.72672376704213	punish_rtpj	287.783769402981	51	3	9	10	750	250	250	250	0	0	0	0	2000	0	BLOCKED	0.25	1	3	-1	scared	At this moment	1	2	9	210	RTPJ	781.152986049652	0.700374531835206	n/a	n/a	n/a	n/a	1043.15833333333	0.474250576479631	n/a	n/a	n/a	n/a	905.777777777778	4	3	0	0	1	0	0
288.767912931919	2.61884525084491	punish_rtpj	291.386758182764	52	3	9	10	750	250	250	250	0	0	0	0	2000	0	BLOCKED	0.25	-1	10	-1	strong	At this moment	2	2	9	210	RTPJ	1128.71852016449	0.430711610486891	n/a	n/a	n/a	n/a	1108.46710526316	0.585703305149885	n/a	n/a	n/a	n/a	952.877551020408	3	4	0	0	1	0	0
292.375746666193	2.69740756154062	punish_rtpj	295.073154227734	53	3	9	10	750	250	250	250	0	0	0	0	2000	0	BLOCKED	0.25	1	3	-1	upset	At this moment	2	2	9	210	RTPJ	1300.38435220718	0.67665418227216	n/a	n/a	n/a	n/a	1253.30115830116	0.487317448116833	n/a	n/a	n/a	n/a	1118.89505247376	4	5	0	0	1	0	0
296.07846534133	2.6810948045254	punish_rtpj	298.759560145855	54	3	9	10	750	250	250	250	0	0	0	0	2000	0	BLOCKED	0.25	1	2	-1	guilty	At this moment	1	2	9	210	RTPJ	1405.17288804054	1	n/a	n/a	n/a	n/a	n/a	1	n/a	n/a	n/a	n/a	n/a	5	6	0	0	1	0	0
299.762905068636	2.68276973438265	punish_rtpj	302.445674803019	55	3	9	10	750	250	250	250	0	0	0	0	2000	0	BLOCKED	0.25	1	10	1	proud	At this moment	2	2	9	210	RTPJ	523.159164190292	0.679151061173533	n/a	n/a	n/a	n/a	1088.43579766537	0.510376633358955	n/a	n/a	n/a	n/a	1126.32653061224	4	7	0	0	1	0	0
303.434541280985	2.64763958358765	punish_rtpj	306.082180864573	56	3	9	10	750	250	250	250	0	0	0	0	2000	0	BLOCKED	0.25	-1	4	1	attentive	At this moment	3	2	9	210	RTPJ	891.785792350769	0.374531835205993	n/a	n/a	n/a	n/a	911.606786427146	0.511145272867025	n/a	n/a	n/a	n/a	1048.69339622642	4	8	0	0	1	0	0
307.087478226185	6.55077998828892	panas_none	313.638258214474	57	5	10	10	n/a	n/a	n/a	n/a	n/a	n/a	n/a	n/a	2000	0	BLOCKED	n/a	n/a	+	0	inspired	At this moment	3	2	9	210	NONE	n/a	0.35330836454432	n/a	n/a	n/a	n/a	661.432432432432	0.229823212913144	676.399420507972	0.331844401444765	-0.000278034875618994	33.3392903325209	740.461077844311	8	1	0	1	0	0	0
314.644211443186	6.33345486879352	panas_none	320.977666311979	58	5	10	10	n/a	n/a	n/a	n/a	n/a	n/a	n/a	n/a	2000	0	BLOCKED	n/a	n/a	+	0	afraid	At this moment	1	2	9	210	NONE	n/a	0.373283395755306	n/a	n/a	n/a	n/a	563.647410358566	0.474250576479631	n/a	n/a	n/a	n/a	650.555555555556	5	2	0	1	0	0	0
321.972054768562	6.42858064699175	panas_none	328.400635415554	59	5	10	10	n/a	n/a	n/a	n/a	n/a	n/a	n/a	n/a	2000	0	BLOCKED	n/a	-1	8	-1	irritable	At this moment	1	2	9	210	NONE	n/a	0	-518.493823519386	0.971119424417587	-0.00020961413394503	16.078680317854	585.684144818976	0.991544965411222	n/a	n/a	n/a	n/a	353.272727272727	5	3	0	1	0	0	0
329.38714535594	10.8060308043957	panas_none	340.193176160336	60	5	10	10	n/a	n/a	n/a	n/a	n/a	n/a	n/a	n/a	2000	0	BLOCKED	n/a	n/a	+	0	strong	At this moment	1	2	9	210	NONE	n/a	0.436953807740325	n/a	n/a	n/a	n/a	1133.46341463415	0.697156033820138	n/a	n/a	n/a	n/a	878.271573604061	15	4	0	1	0	0	0
341.198421687365	2.56452005338667	punish_vlpfc	343.762941740751	61	4	11	10	0	0	0	0	250	250	250	750	2000	0	BLOCKED	0.25	1	4	-1	proud	At this moment	3	2	9	210	VLPFC	1124.79918479919	1	n/a	n/a	n/a	n/a	n/a	1	n/a	n/a	n/a	n/a	n/a	6	1	0	0	1	0	0
344.763381806374	2.68549052548406	punish_vlpfc	347.448872331858	62	4	11	10	0	0	0	0	250	250	250	750	2000	0	BLOCKED	0.25	1	0	-1	scared	At this moment	2	2	9	210	VLPFC	1183.06346416473	1	n/a	n/a	n/a	n/a	n/a	1	n/a	n/a	n/a	n/a	n/a	4	2	0	0	1	0	0
348.449773972988	2.73580964326862	punish_vlpfc	351.185583616257	63	4	11	10	0	0	0	0	250	250	250	750	2000	0	BLOCKED	0.25	1	6	1	distressed	At this moment	1	2	9	210	VLPFC	1335.08924722672	0.715355805243446	n/a	n/a	n/a	n/a	1255.60526315789	0.465795541890853	n/a	n/a	n/a	n/a	1178.16258992806	4	3	0	0	1	0	0
352.191418718338	2.6635824453831	punish_vlpfc	354.855001163721	64	4	11	10	0	0	0	0	250	250	250	750	2000	0	BLOCKED	0.25	1	2	-1	jittery	At this moment	4	2	9	210	VLPFC	572.512112617493	0.779026217228464	n/a	n/a	n/a	n/a	1210.93220338983	0.219830899308224	667.974664922467	0.671396074342572	-0.000229920787848467	28.4680225337477	1067.7960591133	3	4	0	0	1	0	0
355.841746652126	2.69972883772851	punish_vlpfc	358.541475489855	65	4	11	10	0	0	0	0	250	250	250	750	2000	0	BLOCKED	0.25	-1	7	-1	afraid	At this moment	5	2	9	210	VLPFC	534.34875202179	0.757802746566791	n/a	n/a	n/a	n/a	1234.4793814433	0.230591852421214	824.4934012229	0.44093593331054	-0.000128952668677605	16.6210009187732	1099.57042957043	4	5	0	0	1	0	0
359.54614307785	2.68183635783197	punish_vlpfc	362.227979435682	66	4	11	10	0	0	0	0	250	250	250	750	2000	0	BLOCKED	0.25	1	3	-1	irritable	At this moment	4	2	9	210	VLPFC	1233.57052707672	0.767790262172285	n/a	n/a	n/a	n/a	1137.45698924731	0.508839354342813	n/a	n/a	n/a	n/a	1126.64162754304	3	6	0	0	1	0	0
363.211772111177	2.65230611348153	punish_vlpfc	365.864078224659	67	4	11	10	0	0	0	0	250	250	250	750	2000	0	BLOCKED	0.25	1	8	1	ashamed	At this moment	2	2	9	210	VLPFC	895.816907167435	0.806491885143571	n/a	n/a	n/a	n/a	998.677419354839	0.458877786318217	n/a	n/a	n/a	n/a	1002.5	4	7	0	0	1	0	0
366.852660846233	2.6312637081146	punish_vlpfc	369.483924554348	68	4	11	10	0	0	0	0	250	250	250	750	2000	0	BLOCKED	0.25	-1	6	-1	scared	At this moment	2	2	9	210	VLPFC	406.757195234299	0.831460674157303	n/a	n/a	n/a	n/a	1054.53333333333	0.230591852421214	557.413641322426	0.724081085467613	-0.000270138852171811	26.354574932459	981.748251748252	3	8	0	0	1	0	0
370.476047801018	6.2803447885513	panas_none	376.756392589569	69	5	12	10	n/a	n/a	n/a	n/a	n/a	n/a	n/a	n/a	2000	0	BLOCKED	n/a	n/a	+	0	excited	At this moment	3	2	9	210	NONE	n/a	0.375780274656679	n/a	n/a	n/a	n/a	674.24	0.210607225211376	426.714895154426	1.04858095979262	-0.000689984274350272	24.2339072259235	758.414800389484	9	1	0	1	0	0	1
377.762086292505	6.36660930776594	panas_none	384.128695600271	70	5	12	10	n/a	n/a	n/a	n/a	n/a	n/a	n/a	n/a	2000	0	BLOCKED	n/a	n/a	+	0	jittery	At this moment	2	2	9	210	NONE	n/a	0.3083645443196	n/a	n/a	n/a	n/a	656.940433212996	0.242121445042275	871.223491786857	-0.17774647497672	1.64225892671984e-05	16.0593967485195	721.864097363083	9	2	0	1	0	0	1
385.137653123856	6.33044246387482	panas_none	391.46809558773	71	5	12	10	n/a	n/a	n/a	n/a	n/a	n/a	n/a	n/a	2000	0	BLOCKED	n/a	n/a	+	0	strong	At this moment	4	2	9	210	NONE	n/a	0.511860174781523	n/a	n/a	n/a	n/a	457.953964194373	0	553.205669995787	0.0710555530136566	-6.5383649488898e-05	11.7124696932801	556.297463489623	2	3	0	1	0	0	1
392.452118874311	13.6779889559746	panas_none	406.130107830286	72	5	12	10	n/a	n/a	n/a	n/a	n/a	n/a	n/a	n/a	2000	0	BLOCKED	n/a	n/a	+	0	attentive	At this moment	4	2	9	210	NONE	n/a	1	n/a	n/a	n/a	n/a	n/a	1	n/a	n/a	n/a	n/a	n/a	19	4	0	1	0	0	1
407.133671022892	2.63271402072911	reward_vlpfc	409.766385043621	73	2	13	10	0	0	0	0	250	250	250	750	2000	0	BLOCKED	0.75	1	6	1	hostile	At this moment	4	2	9	210	VLPFC	509.276994466782	0.826466916354557	n/a	n/a	n/a	n/a	1315.1654676259	0.49500384319754	n/a	n/a	n/a	n/a	1280.8097412481	4	1	1	0	0	0	0
410.771014196634	2.73164241838458	reward_vlpfc	413.502656615019	74	2	13	10	0	0	0	0	250	250	250	750	2000	0	BLOCKED	0.75	1	9	1	distressed	At this moment	3	2	9	210	VLPFC	915.429804563522	0.382022471910112	n/a	n/a	n/a	n/a	1022.10505050505	0.540353574173713	n/a	n/a	n/a	n/a	953.321070234114	3	2	1	0	0	0	0
414.503417914629	2.61875462794302	reward_vlpfc	417.122172542572	75	2	13	10	0	0	0	0	250	250	250	750	2000	0	BLOCKED	0.75	1	9	1	guilty	At this moment	3	2	9	210	VLPFC	795.9868683815	0.794007490636704	n/a	n/a	n/a	n/a	970.812121212121	0.562644119907763	n/a	n/a	n/a	n/a	1028.65905096661	2	3	1	0	0	0	0
418.111306656837	2.66398301792145	reward_vlpfc	420.775289674759	76	2	13	10	0	0	0	0	250	250	250	750	2000	0	BLOCKED	0.75	1	6	1	scared	At this moment	4	2	9	210	VLPFC	1544.51821994781	0.213483146067416	-4182.13405362461	4.89107811857566	-0.0011352643333794	12.070772687547	1042.50158730159	0.614142966948501	n/a	n/a	n/a	n/a	927.388446215139	3	4	1	0	0	0	0
421.779198079109	2.74904052972795	reward_vlpfc	424.528238608837	77	2	13	10	0	0	0	0	250	250	250	750	2000	0	BLOCKED	0.75	1	4	-1	determined	At this moment	2	2	9	210	VLPFC	892.280866146088	0.282147315855181	n/a	n/a	n/a	n/a	1177.75304347826	0.697924673328209	n/a	n/a	n/a	n/a	1000.8320610687	5	5	1	0	0	0	0
425.531878319263	2.67106250476837	reward_vlpfc	428.202940824032	78	2	13	10	0	0	0	0	250	250	250	750	2000	0	BLOCKED	0.75	-1	3	1	ashamed	At this moment	2	2	9	210	VLPFC	677.148670196533	0.775280898876405	n/a	n/a	n/a	n/a	1107.91666666667	0.325134511913912	n/a	n/a	n/a	n/a	994.021640091116	4	6	1	0	0	0	0
429.198714359522	2.70216929817195	reward_vlpfc	431.900883657694	79	2	13	10	0	0	0	0	250	250	250	750	2000	0	BLOCKED	0.75	1	3	-1	strong	At this moment	3	2	9	210	VLPFC	541.66449213028	0.549313358302122	n/a	n/a	n/a	n/a	1190.80886426593	0.6771714066103	n/a	n/a	n/a	n/a	1026.50714285714	4	7	1	0	0	0	0
432.906163741112	2.58096257352827	reward_vlpfc	435.48712631464	80	2	13	10	0	0	0	0	250	250	250	750	2000	0	BLOCKED	0.75	1	10	1	alert	At this moment	2	2	9	210	VLPFC	1393.83907985687	0.395755305867665	n/a	n/a	n/a	n/a	907.873966942149	0.5380476556495	n/a	n/a	n/a	n/a	985.247920133112	2	8	1	0	0	0	0
436.491719853163	6.38491858077049	panas_none	442.876638433933	81	5	14	10	n/a	n/a	n/a	n/a	n/a	n/a	n/a	n/a	2000	0	BLOCKED	n/a	n/a	+	0	active	At this moment	4	2	9	210	NONE	n/a	0	230.579157219945	0.407967206709833	-0.000100002511484769	16.6457594887442	641.05493133583	0.3543428132206	n/a	n/a	n/a	n/a	662.75119047619	5	1	0	1	0	1	1
443.884389303207	6.36495412445066	panas_none	450.249343427658	82	5	14	10	n/a	n/a	n/a	n/a	n/a	n/a	n/a	n/a	2000	0	BLOCKED	n/a	n/a	+	0	afraid	At this moment	1	2	9	210	NONE	n/a	0.406991260923845	n/a	n/a	n/a	n/a	611.456842105263	0.229823212913144	540.846780342413	0.000973210922590848	-6.61614046868423e-05	17.8029482213346	504.888223552894	6	2	0	1	0	1	1
451.237908065796	6.30065763044354	panas_none	457.538565696239	83	5	14	10	n/a	n/a	n/a	n/a	n/a	n/a	n/a	n/a	2000	0	BLOCKED	n/a	n/a	+	0	guilty	At this moment	3	2	9	210	NONE	n/a	1	n/a	n/a	n/a	n/a	n/a	1	n/a	n/a	n/a	n/a	n/a	1	3	0	1	0	1	1
458.526585541487	13.0734299738407	panas_none	471.600015515327	84	5	14	10	n/a	n/a	n/a	n/a	n/a	n/a	n/a	n/a	2000	0	BLOCKED	n/a	n/a	+	0	enthusiastic	At this moment	1	2	9	210	NONE	n/a	0.771535580524345	n/a	n/a	n/a	n/a	1387.4262295082	0.831667947732513	n/a	n/a	n/a	n/a	1009.61643835616	17	4	0	1	0	1	1
472.589779755592	2.74636064243316	punish_rtpj	475.336140398026	85	3	15	10	750	250	250	250	0	0	0	0	2000	0	BLOCKED	0.25	1	0	-1	ashamed	At this moment	1	2	9	210	RTPJ	1373.42045331001	0.506866416978777	n/a	n/a	n/a	n/a	1187.35696202532	0.357417371252882	n/a	n/a	n/a	n/a	1026.42344497608	5	1	0	0	1	0	0
476.341463853359	2.71469918274875	punish_rtpj	479.056163036108	86	3	15	10	750	250	250	250	0	0	0	0	2000	0	BLOCKED	0.25	-1	6	-1	proud	At this moment	5	2	9	210	RTPJ	1533.53173899651	0.253433208489388	n/a	n/a	n/a	n/a	1162.69899665552	0.945426594926979	n/a	n/a	n/a	n/a	1118.60563380282	2	2	0	0	1	0	0
480.042864799738	2.64940478301048	punish_rtpj	482.692269582748	87	3	15	10	750	250	250	250	0	0	0	0	2000	0	BLOCKED	0.25	1	8	1	attentive	At this moment	1	2	9	210	RTPJ	504.225406885147	0.866416978776529	n/a	n/a	n/a	n/a	1143.38317757009	0.378170637970792	n/a	n/a	n/a	n/a	1097.05315203956	3	3	0	0	1	0	0
483.696052808046	2.61565265846252	punish_rtpj	486.311705466509	88	3	15	10	750	250	250	250	0	0	0	0	2000	0	BLOCKED	0.25	1	9	1	active	At this moment	2	2	9	210	RTPJ	1025.53368544579	0.845193508114856	n/a	n/a	n/a	n/a	1144.58870967742	0.477325134511914	n/a	n/a	n/a	n/a	1187.40294117647	4	4	0	0	1	0	0
487.300794445753	2.68060078835492	punish_rtpj	489.981395234108	89	3	15	10	750	250	250	250	0	0	0	0	2000	0	BLOCKED	0.25	-1	6	-1	alert	At this moment	3	2	9	210	RTPJ	676.718830347061	0.776529338327091	n/a	n/a	n/a	n/a	1096.17318435754	0.497309761721753	n/a	n/a	n/a	n/a	1161.68042813456	4	5	0	0	1	0	0
490.970319541454	2.66432188272472	punish_rtpj	493.634641424179	90	3	15	10	750	250	250	250	0	0	0	0	2000	0	BLOCKED	0.25	-1	7	-1	upset	At this moment	1	2	9	210	RTPJ	1405.81429791451	1	n/a	n/a	n/a	n/a	n/a	1	n/a	n/a	n/a	n/a	n/a	3	6	0	0	1	0	0
494.639852394819	2.68089874958991	punish_rtpj	497.320751144409	91	3	15	10	750	250	250	250	0	0	0	0	2000	0	BLOCKED	0.25	-1	7	-1	strong	At this moment	2	2	9	210	RTPJ	1326.28405404091	0.387016229712859	n/a	n/a	n/a	n/a	952.391038696538	0.531129900076864	n/a	n/a	n/a	n/a	928.972131147541	3	7	0	0	1	0	0
498.326549574614	2.64725523114203	punish_rtpj	500.973804805756	92	3	15	10	750	250	250	250	0	0	0	0	2000	0	BLOCKED	0.25	1	0	-1	hostile	At this moment	2	2	9	210	RTPJ	723.74697637558	0.774032459425718	n/a	n/a	n/a	n/a	1037.29834254144	0.438893159108378	n/a	n/a	n/a	n/a	990.943835616438	4	8	0	0	1	0	0
501.974644738674	6.43863868761065	panas_none	508.413283426285	93	5	16	10	n/a	n/a	n/a	n/a	n/a	n/a	n/a	n/a	2000	0	BLOCKED	n/a	n/a	+	0	excited	At this moment	4	2	9	210	NONE	n/a	0.466916354556804	n/a	n/a	n/a	n/a	782.379391100703	0.243658724058417	1503.03219145307	-1.58568538828504	0.000802170317196911	34.2807622151867	853.686991869919	9	1	0	1	0	0	0
509.405536436081	6.19702779316907	panas_none	515.60256422925	94	5	16	10	n/a	n/a	n/a	n/a	n/a	n/a	n/a	n/a	2000	0	BLOCKED	n/a	n/a	+	0	nervous	At this moment	1	2	9	210	NONE	n/a	0.0711610486891386	-3371.9337299954	3.77843362114912	-0.000852491608809612	28.2888286564151	764.575268817204	0.295157571099154	n/a	n/a	n/a	n/a	706.873500545256	7	2	0	1	0	0	0
516.607666594029	6.45084169626239	panas_none	523.058508290291	95	5	16	10	n/a	n/a	n/a	n/a	n/a	n/a	n/a	n/a	2000	0	BLOCKED	n/a	n/a	+	0	strong	At this moment	3	2	9	210	NONE	n/a	0.280898876404494	n/a	n/a	n/a	n/a	763.029513888889	0.499615680245965	n/a	n/a	n/a	n/a	689.399385560676	11	3	0	1	0	0	0
520.309726404905	3.73306540322312	panas_none	524.042791808128	95	5	16	10	n/a	n/a	n/a	n/a	n/a	n/a	n/a	n/a	2000	0	BLOCKED	n/a	n/a	+	0	irritable	At this moment	5	2	9	210	NONE	n/a	1	n/a	n/a	n/a	n/a	n/a	0.479631053036126	n/a	n/a	n/a	n/a	736.122599704579	0	3	0	1	0	0	0
