onset	duration	trial_type	offset	trial	block	blockCntr	frequency	amplitude_1	amplitude_2	amplitude_3	amplitude_4	amplitude_5	amplitude_6	amplitude_7	amplitude_8	transition	sham	mode	rewardFraction	guess	outcome	correct	word	when	answer	runNr	scanNr	subjectNr	target	reactionTime	outcomeEyeClosed	outcomeParms_1	outcomeParms_2	outcomeParms_3	outcomeSigma	outcomePupilArea	guessEyeClosed	guessParms_1	guessParms_2	guessParms_3	guessSigma	guessPupilArea	nrBlinks	trialInBlock	isReward	isPanas	isPunish	beforePanasReward	beforePanasVLPFC
20.4026226949692	2.52134884476662	punish_rtpj	22.9239715397358	1	3	1	10	750	250	250	250	0	0	0	0	500	0	BLOCKED	0.25	1	8	1	afraid	At this moment	1	2	8	207	RTPJ	1163.39038443565	0	23971.3305657235	-16.9114872449521	0.00374048669297741	51.884144544878	5151.4456928839	0.152190622598002	6268.76209210797	-1.74754922396691	0.0010479508008187	42.312242220395	5717.95285584769	1	1	0	0	1	0	0
23.908170771122	2.51856493330002	punish_rtpj	26.426735704422	2	3	1	10	750	250	250	250	0	0	0	0	500	0	BLOCKED	0.25	1	2	-1	attentive	At this moment	1	2	8	207	RTPJ	574.895501852036	0.81023720349563	n/a	n/a	n/a	n/a	5536.51315789474	0	3910.70386511047	2.66814922051573	-0.00116228722730123	70.523673942651	5175.64950038432	4	2	0	0	1	0	0
27.4276193628311	2.51880153918266	punish_rtpj	29.9464209020138	3	3	1	10	750	250	250	250	0	0	0	0	500	0	BLOCKED	0.25	-1	7	-1	alert	At this moment	4	2	8	207	RTPJ	425.493434429169	0.374531835205993	n/a	n/a	n/a	n/a	5407.2754491018	0	4655.70856486992	1.54565021877287	-0.000812245810847278	107.067910502727	5265.62182936203	1	3	0	0	1	0	0
30.9471504664421	2.51864568281174	punish_rtpj	33.4657961492538	4	3	1	10	750	250	250	250	0	0	0	0	500	0	BLOCKED	0.25	-1	7	-1	excited	At this moment	2	2	8	207	RTPJ	410.878517389297	0.822721598002497	n/a	n/a	n/a	n/a	5309.32394366197	0	2813.59215317784	4.29059379854594	-0.00194321621471859	83.2297723727163	4786.97386625673	4	4	0	0	1	0	0
34.4499008793831	2.53540803790092	punish_rtpj	36.985308917284	5	3	1	10	750	250	250	250	0	0	0	0	500	0	BLOCKED	0.25	-1	6	-1	scared	At this moment	4	2	8	207	RTPJ	342.281460285187	0.923845193508115	n/a	n/a	n/a	n/a	5606.18032786885	0	4681.34045706171	0.642843752506478	-3.31720881748847e-05	58.6285174783243	5198.48808608762	7	5	0	0	1	0	0
37.9808384387493	2.50734078097343	punish_rtpj	40.4881792197227	6	3	1	10	750	250	250	250	0	0	0	0	500	0	BLOCKED	0.25	1	0	-1	irritable	At this moment	5	2	8	207	RTPJ	347.25935459137	0.870162297128589	n/a	n/a	n/a	n/a	5603.48076923077	0	4329.4982484577	1.8354203783248	-0.000722596713215873	68.234391202499	5266.1045349731	2	6	0	0	1	0	0
41.4889835391045	2.51883821153641	punish_rtpj	44.0078217506409	7	3	1	10	750	250	250	250	0	0	0	0	500	0	BLOCKED	0.25	-1	4	1	attentive	At this moment	3	2	8	207	RTPJ	375.013487815857	0	24552.4636433478	-17.134007183957	0.00365725460429777	49.5358902011247	4884.76029962547	0	4209.13764440698	2.20809993631702	-0.00085106336303267	43.7811998208319	5350.85242121445	0	7	0	0	1	0	0
44.9917819077969	2.51864532995224	punish_rtpj	47.5104272377491	8	3	1	10	750	250	250	250	0	0	0	0	500	0	BLOCKED	0.25	-1	10	-1	jittery	At this moment	3	2	8	207	RTPJ	458.209946870804	0.68414481897628	n/a	n/a	n/a	n/a	5452.0790513834	0	3706.64741806941	2.38045261019714	-0.000928345730875369	62.6190082663109	4927.95311299001	2	8	0	0	1	0	0
48.5280520942211	6.02164892172813	panas_none	54.5497010159492	9	5	2	10	n/a	n/a	n/a	n/a	n/a	n/a	n/a	n/a	500	0	BLOCKED	n/a	n/a	+	0	alert	At this moment	1	2	8	207	NONE	n/a	1	n/a	n/a	n/a	n/a	n/a	0.420445810914681	n/a	n/a	n/a	n/a	5111.11538461538	2	1	0	1	0	0	0
55.5336350793838	6.02179737377167	panas_none	61.5554324531555	10	5	2	10	n/a	n/a	n/a	n/a	n/a	n/a	n/a	n/a	500	0	BLOCKED	n/a	n/a	+	0	excited	At this moment	2	2	8	207	NONE	n/a	1	n/a	n/a	n/a	n/a	n/a	1	n/a	n/a	n/a	n/a	n/a	0	2	0	1	0	0	0
62.5394373924732	6.00508297419549	panas_none	68.5445203666687	11	5	2	10	n/a	n/a	n/a	n/a	n/a	n/a	n/a	n/a	500	0	BLOCKED	n/a	n/a	+	0	scared	At this moment	4	2	8	207	NONE	n/a	1	n/a	n/a	n/a	n/a	n/a	1	n/a	n/a	n/a	n/a	n/a	0	3	0	1	0	0	0
69.5450662178993	13.0608814437389	panas_none	82.6059476616383	12	5	2	10	n/a	n/a	n/a	n/a	n/a	n/a	n/a	n/a	500	0	BLOCKED	n/a	1	3	-1	jittery	At this moment	3	2	8	207	NONE	n/a	0.164794007490637	7567.6664199038	-1.82202512206231	0.000326222676392689	58.8661511345463	5168.19431988042	0.951575710991545	n/a	n/a	n/a	n/a	6090.47619047619	44	4	0	1	0	0	0
83.6066260969639	2.51865273499489	reward_vlpfc	86.1252788319588	13	2	3	10	0	0	0	0	250	250	250	750	500	0	BLOCKED	0.75	1	8	1	distressed	At this moment	1	2	8	207	VLPFC	775.617802619934	0.922596754057428	n/a	n/a	n/a	n/a	5138.56451612903	0	3446.15412197572	2.68551730056702	-0.00105554364175423	90.5074376823766	4823.35357417371	1	1	1	0	0	0	0
87.1261716582775	2.51866542935372	reward_vlpfc	89.6448370876312	14	2	3	10	0	0	0	0	250	250	250	750	500	0	BLOCKED	0.75	-1	7	-1	attentive	At this moment	1	2	8	207	VLPFC	458.288933038712	0.0574282147315855	16187.4711055442	-10.2491077150195	0.0023099493153765	59.9225733349534	4956.46754966887	1	n/a	n/a	n/a	n/a	n/a	19	2	1	0	0	0	0
90.629045134306	2.51853707647324	reward_vlpfc	93.1475822107792	15	2	3	10	0	0	0	0	250	250	250	750	500	0	BLOCKED	0.75	-1	3	1	afraid	At this moment	4	2	8	207	VLPFC	692.032759428024	0.506866416978777	n/a	n/a	n/a	n/a	5112.2253164557	0	3775.18404051148	1.91113088533154	-0.000571992362424542	49.8615464311777	4907.17371252882	3	3	1	0	0	0	0
94.1317236130238	2.51878990316392	reward_vlpfc	96.6505135161877	16	2	3	10	0	0	0	0	250	250	250	750	500	0	BLOCKED	0.75	1	8	1	proud	At this moment	2	2	8	207	VLPFC	994.535846948624	0	19035.154618742	-11.9258843176562	0.00238932384370891	51.8958994885539	4661.23845193508	0	4072.51056580986	2.11529900252842	-0.000860319750913315	85.2455284529738	5127.05611068409	0	4	1	0	0	0	0
97.6513495709896	2.51870598030091	reward_vlpfc	100.170055551291	17	2	3	10	0	0	0	0	250	250	250	750	500	0	BLOCKED	0.75	-1	4	1	nervous	At this moment	1	2	8	207	VLPFC	475.4165995121	0	16068.7803377935	-9.81319984098351	0.00201770173247494	71.2277313114124	4465.82771535581	0	3323.57726577172	2.74694047270604	-0.00117548576060015	62.8000916820101	4644.20138355111	0	5	1	0	0	0	0
101.170755848885	2.51885055303573	reward_vlpfc	103.68960640192	18	2	3	10	0	0	0	0	250	250	250	750	500	0	BLOCKED	0.75	1	10	1	ashamed	At this moment	3	2	8	207	VLPFC	525.16557097435	0	24848.1090441443	-18.17887656735	0.00398967844835705	79.1613191283445	4481.13607990012	0	3353.60638004643	2.66224932595721	-0.00101994796030384	49.536089353275	4737.94465795542	0	6	1	0	0	0	0
104.690389916897	2.56891688036919	reward_vlpfc	107.259306797266	19	2	3	10	0	0	0	0	250	250	250	750	500	0	BLOCKED	0.75	-1	1	1	active	At this moment	5	2	8	207	VLPFC	686.029807329178	0	20085.704542261	-14.6392201259167	0.00338865351840539	48.57287324483	4468.38701622971	0	4000.20045808667	1.24719110936542	-0.000453443582396146	72.0518258485129	4668.75019215988	0	7	1	0	0	0	0
108.2432979846	2.5187884926796	reward_vlpfc	110.76208647728	20	2	3	10	0	0	0	0	250	250	250	750	500	0	BLOCKED	0.75	-1	6	-1	proud	At this moment	1	2	8	207	VLPFC	458.801285505295	0	11346.1979627566	-5.98024057558348	0.00135698634111755	85.5337072702249	4843.69038701623	0	3136.58734525791	2.74390554089497	-0.000974750374538059	61.4387847071857	4626.77863182168	0	8	1	0	0	0	0
111.746032529593	6.03838377308846	panas_none	117.784416302681	21	5	4	10	n/a	n/a	n/a	n/a	n/a	n/a	n/a	n/a	500	0	BLOCKED	n/a	n/a	+	0	upset	At this moment	2	2	8	207	NONE	n/a	1	n/a	n/a	n/a	n/a	n/a	0.366641045349731	n/a	n/a	n/a	n/a	4264.34466019418	1	1	0	1	0	1	1
118.768855666161	6.00476244544983	panas_none	124.77361811161	22	5	4	10	n/a	n/a	n/a	n/a	n/a	n/a	n/a	n/a	500	0	BLOCKED	n/a	n/a	+	0	excited	At this moment	4	2	8	207	NONE	n/a	1	n/a	n/a	n/a	n/a	n/a	1	n/a	n/a	n/a	n/a	n/a	0	2	0	1	0	1	1
125.774193582535	6.00493734335899	panas_none	131.779130925894	23	5	4	10	n/a	n/a	n/a	n/a	n/a	n/a	n/a	n/a	500	0	BLOCKED	n/a	n/a	+	0	enthusiastic	At this moment	5	2	8	207	NONE	n/a	1	n/a	n/a	n/a	n/a	n/a	1	n/a	n/a	n/a	n/a	n/a	0	3	0	1	0	1	1
132.780175024986	10.1414639530182	panas_none	142.921638978004	24	5	4	10	n/a	n/a	n/a	n/a	n/a	n/a	n/a	n/a	500	0	BLOCKED	n/a	n/a	+	0	ashamed	At this moment	2	2	8	207	NONE	n/a	0.469413233458177	n/a	n/a	n/a	n/a	4439.53647058824	0.970791698693313	n/a	n/a	n/a	n/a	6006.73684210526	4	4	0	1	0	1	1
143.905826220512	2.51867142367365	reward_vlpfc	146.424497644186	25	2	5	10	0	0	0	0	250	250	250	750	500	0	BLOCKED	0.75	1	10	1	jittery	At this moment	2	2	8	207	VLPFC	693.035249710083	0	20342.5641499802	-15.1665396202876	0.00356811285028541	66.4700888537022	4418.74282147316	0	3719.28903990945	2.70064956528844	-0.00126039430525816	51.4697250751092	4926.68024596464	0	1	1	0	0	0	0
147.425284685373	2.51848524212838	reward_vlpfc	149.943769927502	26	2	5	10	0	0	0	0	250	250	250	750	500	0	BLOCKED	0.75	-1	1	1	guilty	At this moment	4	2	8	207	VLPFC	742.197467088699	0	27203.7014354306	-20.3507377618324	0.00446669843286095	66.4517101092898	4391.38701622971	0	4045.52684521874	1.05967783575921	-0.000372001041577303	105.156617772242	4626.72482705611	0	2	1	0	0	0	0
150.944884549618	2.51862135195731	reward_vlpfc	153.463505901575	27	2	5	10	0	0	0	0	250	250	250	750	500	0	BLOCKED	0.75	-1	6	-1	irritable	At this moment	1	2	8	207	VLPFC	692.051800966263	0	805.830833209886	4.43627251037918	-0.00125941889028045	54.7042627506719	4505.94257178527	0	2742.51005412634	3.06935427668296	-0.00130791267189	90.4285671906097	4231.29900076864	0	3	1	0	0	0	0
154.464233350754	2.51887100481989	reward_vlpfc	156.983104355574	28	2	5	10	0	0	0	0	250	250	250	750	500	0	BLOCKED	0.75	1	9	1	distressed	At this moment	5	2	8	207	VLPFC	1025.36374211311	0	24201.8454709755	-18.0217696851881	0.00403674342770654	67.9459354486438	4374.11985018727	0	3501.25365784013	1.9900920218551	-0.000755963156856389	85.3942791766033	4539.44196771714	0	4	1	0	0	0	0
157.966954848766	2.51884420609474	reward_vlpfc	160.485799054861	29	2	5	10	0	0	0	0	250	250	250	750	500	0	BLOCKED	0.75	1	7	1	interested	At this moment	1	2	8	207	VLPFC	1476.54109525681	0	28224.4609061093	-21.5347762411368	0.00479229633888858	64.4480082542035	4379.4631710362	0	3639.9408584063	2.12657784319964	-0.000820990988804944	64.0890611203773	4737.81245196003	0	5	1	0	0	0	0
161.48661888957	2.51875252556803	reward_vlpfc	164.005371415138	30	2	5	10	0	0	0	0	250	250	250	750	500	0	BLOCKED	0.75	1	7	1	determined	At this moment	5	2	8	207	VLPFC	476.416268587112	0	22578.249300005	-15.62599226039	0.00328919479294083	76.7362473996118	4440.53807740325	0	3937.32808554904	2.02229112424822	-0.000839353316479784	45.3073730766022	4932.91852421214	0	6	1	0	0	0	0
164.989495539188	2.51869681191442	reward_vlpfc	167.508192351103	31	2	5	10	0	0	0	0	250	250	250	750	500	0	BLOCKED	0.75	1	8	1	irritable	At this moment	4	2	8	207	VLPFC	726.561370611191	0	18260.1695716931	-12.2518733993749	0.0026371133831971	65.0499538312961	4301.33832709114	0	4406.03483242506	0.61709703607625	-9.17820057926371e-06	55.4054685385088	4922.22751729439	1	7	1	0	0	0	0
168.508966345549	2.51883574318884	reward_vlpfc	171.027802088737	32	2	5	10	0	0	0	0	250	250	250	750	500	0	BLOCKED	0.75	1	2	-1	ashamed	At this moment	1	2	8	207	VLPFC	959.470905303955	0.796504369538077	n/a	n/a	n/a	n/a	5026.77300613497	0	3622.96925904452	2.33335843601517	-0.000916947996650117	38.3170268490809	4816.67870868563	1	8	1	0	0	0	0
172.031255619764	6.00232374620438	panas_none	178.033579365969	33	5	6	10	n/a	n/a	n/a	n/a	n/a	n/a	n/a	n/a	500	0	BLOCKED	n/a	1	0	-1	distressed	At this moment	3	2	8	207	NONE	n/a	1	n/a	n/a	n/a	n/a	n/a	0.357417371252882	n/a	n/a	n/a	n/a	4542.47488038278	1	1	0	1	0	1	1
179.017514839888	6.02152973723412	panas_none	185.039044577122	34	5	6	10	n/a	n/a	n/a	n/a	n/a	n/a	n/a	n/a	500	0	BLOCKED	n/a	n/a	+	0	scared	At this moment	1	2	8	207	NONE	n/a	1	n/a	n/a	n/a	n/a	n/a	1	n/a	n/a	n/a	n/a	n/a	0	2	0	1	0	1	1
186.023425053835	6.00487528276443	panas_none	192.028300336599	35	5	6	10	n/a	n/a	n/a	n/a	n/a	n/a	n/a	n/a	500	0	BLOCKED	n/a	n/a	+	0	hostile	At this moment	4	2	8	207	NONE	n/a	1	n/a	n/a	n/a	n/a	n/a	1	n/a	n/a	n/a	n/a	n/a	4	3	0	1	0	1	1
193.02881409955	9.37462560892104	panas_none	202.403439708471	36	5	6	10	n/a	n/a	n/a	n/a	n/a	n/a	n/a	n/a	500	0	BLOCKED	n/a	n/a	+	0	ashamed	At this moment	3	2	8	207	NONE	n/a	0	6643.86753264005	-1.47751123977273	0.000400211971709111	40.0098154367094	5327.78277153558	0.778631821675634	n/a	n/a	n/a	n/a	6132.38194444444	3	4	0	1	0	1	1
203.387392813444	2.51867424464226	reward_rtpj	205.906067058086	37	1	7	10	750	250	250	250	0	0	0	0	500	0	BLOCKED	0.75	1	4	-1	active	At this moment	4	2	8	207	RTPJ	676.40265750885	0.831460674157303	n/a	n/a	n/a	n/a	5253.81481481481	0	3781.43073210795	2.37176145422248	-0.000838348839874794	52.0775008068846	5072.39277478862	1	1	1	0	0	0	0
206.890364316702	2.51855082893371	reward_rtpj	209.408915145636	38	1	7	10	750	250	250	250	0	0	0	0	500	0	BLOCKED	0.75	-1	0	1	afraid	At this moment	2	2	8	207	RTPJ	959.591853141785	0.541822721598002	n/a	n/a	n/a	n/a	5151.38692098093	0	4167.10525272737	2.47967431467086	-0.00100557997191859	48.8970029243727	5407.4950038432	1	2	1	0	0	0	0
210.4097265172	2.51873983144759	reward_rtpj	212.928466348648	39	1	7	10	750	250	250	250	0	0	0	0	500	0	BLOCKED	0.75	-1	8	-1	enthusiastic	At this moment	2	2	8	207	RTPJ	442.355580568314	0.636704119850187	n/a	n/a	n/a	n/a	5418.80756013746	0	3717.43309910057	2.1319104109176	-0.000742157428364571	48.4334947494756	4890.19369715603	2	3	1	0	0	0	0
213.912553095341	2.51875146770476	reward_rtpj	216.431304563046	40	1	7	10	750	250	250	250	0	0	0	0	500	0	BLOCKED	0.75	-1	1	1	upset	At this moment	1	2	8	207	RTPJ	1077.20725917816	0.450686641697878	n/a	n/a	n/a	n/a	4878.20227272727	0	4822.56751972665	1.23398885499591	-0.000601671315337853	42.3614910828446	5352.34358186011	3	4	1	0	0	0	0
217.43199851346	2.53600607633589	reward_rtpj	219.968004589796	41	1	7	10	750	250	250	250	0	0	0	0	500	0	BLOCKED	0.75	-1	1	1	active	At this moment	5	2	8	207	RTPJ	609.356057882309	0	13716.5821753148	-8.0717013809569	0.00177914938067715	71.2639668878405	4699.32584269663	0.377401998462721	n/a	n/a	n/a	n/a	4478.7950617284	2	5	1	0	0	0	0
220.968349449158	2.51867636036872	reward_rtpj	223.487025809526	42	1	7	10	750	250	250	250	0	0	0	0	500	0	BLOCKED	0.75	-1	4	1	proud	At this moment	4	2	8	207	RTPJ	792.717612266541	0	20809.0176966575	-15.112159899951	0.00347878887986389	75.5271884075965	4601.31460674157	0	3729.49037899783	1.94587618932831	-0.000794840950373943	48.6361814736578	4698.83243658724	0	6	1	0	0	0	0
224.487775473118	2.51881634950638	reward_rtpj	227.006591822624	43	1	7	10	750	250	250	250	0	0	0	0	500	0	BLOCKED	0.75	-1	0	1	strong	At this moment	3	2	8	207	RTPJ	493.33765411377	0	16007.9553434023	-10.3039177641698	0.00223690084151629	66.1477955466684	4354.20474406991	0	2975.18732621278	3.75358566480082	-0.00172054035435276	50.8094496754867	4704.11222136818	0	7	1	0	0	0	0
227.990900012732	2.55174972081184	reward_rtpj	230.542649733543	44	1	7	10	750	250	250	250	0	0	0	0	500	0	BLOCKED	0.75	-1	0	1	attentive	At this moment	5	2	8	207	RTPJ	1062.62830853462	0	28466.3958917406	-20.773904046848	0.0044630288914356	50.9235844836635	4710.39700374532	0	4114.05562042883	1.76116432346007	-0.000616139100086532	42.7287116374587	5079.45887778632	0	8	1	0	0	0	0
231.54829442668	6.01685826706887	panas_none	237.565152693748	45	5	8	10	n/a	n/a	n/a	n/a	n/a	n/a	n/a	n/a	500	0	BLOCKED	n/a	n/a	+	0	active	At this moment	5	2	8	207	NONE	n/a	1	n/a	n/a	n/a	n/a	n/a	0.385088393543428	n/a	n/a	n/a	n/a	4211.17625	1	1	0	1	0	1	0
238.565904825926	6.00492993831634	panas_none	244.570834764242	46	5	8	10	n/a	n/a	n/a	n/a	n/a	n/a	n/a	n/a	500	0	BLOCKED	n/a	n/a	+	0	hostile	At this moment	1	2	8	207	NONE	n/a	1	n/a	n/a	n/a	n/a	n/a	1	n/a	n/a	n/a	n/a	n/a	4	2	0	1	0	1	0
245.555102050781	6.00488586139679	panas_none	251.559987912178	47	5	8	10	n/a	n/a	n/a	n/a	n/a	n/a	n/a	n/a	500	0	BLOCKED	n/a	n/a	+	0	scared	At this moment	2	2	8	207	NONE	n/a	1	n/a	n/a	n/a	n/a	n/a	1	n/a	n/a	n/a	n/a	n/a	0	3	0	1	0	1	0
252.54397557354	9.89137456440926	panas_none	262.435350137949	48	5	8	10	n/a	n/a	n/a	n/a	n/a	n/a	n/a	n/a	500	0	BLOCKED	n/a	n/a	+	0	upset	At this moment	5	2	8	207	NONE	n/a	0.374531835205993	n/a	n/a	n/a	n/a	5320.54491017964	1	n/a	n/a	n/a	n/a	n/a	13	4	0	1	0	1	0
263.436153752327	2.51880894446373	punish_rtpj	265.954962696791	49	3	9	10	750	250	250	250	0	0	0	0	500	0	BLOCKED	0.25	1	0	-1	nervous	At this moment	1	2	8	207	RTPJ	1325.58081316948	0.607990012484395	n/a	n/a	n/a	n/a	5249.07643312102	0	3971.98324007466	1.74068621424705	-0.000580578083747347	59.6040232276146	4950.61106840892	1	1	0	0	1	0	0
266.958092877865	2.51632228922847	punish_rtpj	269.474415167093	50	3	9	10	750	250	250	250	0	0	0	0	500	0	BLOCKED	0.25	-1	6	-1	attentive	At this moment	5	2	8	207	RTPJ	658.422715902328	0	9568.99024683384	-4.01295733973182	0.000696082625290843	37.6162425180941	4248.73907615481	0	4234.305660071	1.82737525449238	-0.000935497046629435	52.1989392682118	4981.00384319754	0	2	0	0	1	0	0
270.481288730621	2.51264343571665	punish_rtpj	272.993932166338	51	3	9	10	750	250	250	250	0	0	0	0	500	0	BLOCKED	0.25	-1	7	-1	strong	At this moment	2	2	8	207	RTPJ	535.857624530792	0.277153558052434	n/a	n/a	n/a	n/a	4602.41623488774	0	3107.70743955923	2.55240352247249	-0.00101114357068103	50.7283135681825	4407.71944657955	2	3	0	0	1	0	0
273.978168422699	2.51870598006252	punish_rtpj	276.496874402761	52	3	9	10	750	250	250	250	0	0	0	0	500	0	BLOCKED	0.25	-1	6	-1	scared	At this moment	5	2	8	207	RTPJ	374.725046634674	1	n/a	n/a	n/a	n/a	n/a	1	n/a	n/a	n/a	n/a	n/a	2	4	0	0	1	0	0
277.484653049707	2.51509835553173	punish_rtpj	279.999751405239	53	3	9	10	750	250	250	250	0	0	0	0	500	0	BLOCKED	0.25	-1	0	1	proud	At this moment	4	2	8	207	RTPJ	1355.6925432682	0	22410.2676220987	-15.6104303801325	0.00330768862354781	52.876985772628	4390.51560549313	0	4035.74991403884	1.9273534555442	-0.000829484573944744	45.9749718695631	4957.7524980784	0	5	0	0	1	0	0
281.000528220415	2.51864744544031	punish_rtpj	283.519175665855	54	3	9	10	750	250	250	250	0	0	0	0	500	0	BLOCKED	0.25	1	7	1	enthusiastic	At this moment	3	2	8	207	RTPJ	476.253359556198	0.47565543071161	n/a	n/a	n/a	n/a	4929.56428571429	0	3994.89289381121	1.64531263897087	-0.000628255260807342	40.4335595729637	4851.80322828593	2	6	0	0	1	0	0
284.519890068054	2.51886395287511	punish_rtpj	287.038754020929	55	3	9	10	750	250	250	250	0	0	0	0	500	0	BLOCKED	0.25	1	2	-1	distressed	At this moment	1	2	8	207	RTPJ	926.257203102112	0	15153.5541308841	-9.55714365087843	0.00218355584944201	56.2206528502727	4828.68289637953	0	4013.39479018008	1.39809019843031	-0.000489953092205211	51.7121762821384	4779.04073789393	0	7	0	0	1	0	0
288.039499100447	2.51884949541096	punish_rtpj	290.558348595858	56	3	9	10	750	250	250	250	0	0	0	0	500	0	BLOCKED	0.25	1	0	-1	determined	At this moment	4	2	8	207	RTPJ	976.352444887161	0.81772784019975	n/a	n/a	n/a	n/a	5278.8904109589	0.299769408147579	n/a	n/a	n/a	n/a	4994.36443468716	2	8	0	0	1	0	0
291.542363761187	6.00488903498649	panas_none	297.547252796173	57	5	10	10	n/a	n/a	n/a	n/a	n/a	n/a	n/a	n/a	500	0	BLOCKED	n/a	n/a	+	0	jittery	At this moment	1	2	8	207	NONE	n/a	1	n/a	n/a	n/a	n/a	n/a	1	n/a	n/a	n/a	n/a	n/a	3	1	0	1	0	0	0
298.531303575754	6.00520850610729	panas_none	304.536512081861	58	5	10	10	n/a	n/a	n/a	n/a	n/a	n/a	n/a	n/a	500	0	BLOCKED	n/a	n/a	+	0	guilty	At this moment	1	2	8	207	NONE	n/a	1	n/a	n/a	n/a	n/a	n/a	1	n/a	n/a	n/a	n/a	n/a	0	2	0	1	0	0	0
305.537132687569	6.00492041802408	panas_none	311.542053105593	59	5	10	10	n/a	n/a	n/a	n/a	n/a	n/a	n/a	n/a	500	0	BLOCKED	n/a	n/a	+	0	ashamed	At this moment	2	2	8	207	NONE	n/a	1	n/a	n/a	n/a	n/a	n/a	1	n/a	n/a	n/a	n/a	n/a	0	3	0	1	0	0	0
312.542778791428	13.5109769675731	panas_none	326.053755759001	60	5	10	10	n/a	n/a	n/a	n/a	n/a	n/a	n/a	n/a	500	0	BLOCKED	n/a	n/a	+	0	active	At this moment	4	2	8	207	NONE	n/a	1	n/a	n/a	n/a	n/a	n/a	1	n/a	n/a	n/a	n/a	n/a	6	4	0	1	0	0	0
327.054640122652	2.5355698890686	reward_rtpj	329.590210011721	61	1	11	10	750	250	250	250	0	0	0	0	500	0	BLOCKED	0.75	1	7	1	strong	At this moment	1	2	8	207	RTPJ	1258.8480424881	0	21033.2301992116	-13.8434785427807	0.00288285680955031	50.0081188651108	4804.15980024969	0	3450.38203483339	2.97647067531538	-0.001072473489708	60.1634662718773	5059.23520368947	0	1	1	0	0	0	0
330.590743521214	2.55207589149472	reward_rtpj	333.142819412708	62	1	11	10	750	250	250	250	0	0	0	0	500	0	BLOCKED	0.75	-1	9	-1	nervous	At this moment	1	2	8	207	RTPJ	879.854213953018	0.579275905118602	n/a	n/a	n/a	n/a	4711.51335311573	0.393543428132206	n/a	n/a	n/a	n/a	4201.40304182509	4	2	1	0	0	0	0
334.127088814974	2.51866260838511	reward_rtpj	336.645751423359	63	1	11	10	750	250	250	250	0	0	0	0	500	0	BLOCKED	0.75	1	7	1	enthusiastic	At this moment	2	2	8	207	RTPJ	626.805663585663	0	25739.0889024507	-19.2539765572065	0.00427102872867168	64.6756877066128	4368.98127340824	0	2924.80391686389	3.51298780308816	-0.00148023022110243	75.0383287649418	4669.17371252882	0	3	1	0	0	0	0
337.64654304862	2.51874899935723	reward_rtpj	340.165292047977	64	1	11	10	750	250	250	250	0	0	0	0	500	0	BLOCKED	0.75	1	7	1	irritable	At this moment	1	2	8	207	RTPJ	458.74063539505	0.374531835205993	n/a	n/a	n/a	n/a	4583.73453093812	0	3427.65078088481	2.82898238736342	-0.00120244973595374	39.915604894674	4795.55726364335	1	4	1	0	0	0	0
341.166238119364	2.51854130816457	reward_rtpj	343.684779427528	65	1	11	10	750	250	250	250	0	0	0	0	500	0	BLOCKED	0.75	1	9	1	alert	At this moment	3	2	8	207	RTPJ	691.649112462997	0	18987.775512817	-13.484894042117	0.00304477358825438	49.8779821303686	4259.71660424469	0	3401.46533802237	2.62158314037372	-0.00108086346568641	39.8980529514441	4695.47732513451	0	5	1	0	0	0	0
344.6855040555	2.51887135744096	reward_rtpj	347.204375412941	66	1	11	10	750	250	250	250	0	0	0	0	500	0	BLOCKED	0.75	-1	10	-1	interested	At this moment	5	2	8	207	RTPJ	1473.06534910202	0.720349563046192	n/a	n/a	n/a	n/a	5145.39732142857	0.323597232897771	n/a	n/a	n/a	n/a	4763.90113636364	4	6	1	0	0	0	0
348.205136713028	2.51869822287557	reward_rtpj	350.723834935904	67	1	11	10	750	250	250	250	0	0	0	0	500	0	BLOCKED	0.75	-1	4	1	inspired	At this moment	3	2	8	207	RTPJ	226.555728673935	0.303370786516854	n/a	n/a	n/a	n/a	4893.79390681004	0	4427.534069378	1.31568257749398	-0.000495062231204119	66.4117701636137	5117.87086856264	3	7	1	0	0	0	0
351.724567673922	2.51894258618358	reward_rtpj	354.243510260105	68	1	11	10	750	250	250	250	0	0	0	0	500	0	BLOCKED	0.75	-1	1	1	jittery	At this moment	2	2	8	207	RTPJ	426.192321538925	0	20660.5247617068	-14.2390092795778	0.00312715035516763	53.5438666496335	4701.51935081149	0	4084.95102001831	1.86602251933475	-0.000797018380026973	54.463041023616	4983.52805534204	0	8	1	0	0	0	0
355.246053686619	6.01979204058648	panas_none	361.265845727205	69	5	12	10	n/a	n/a	n/a	n/a	n/a	n/a	n/a	n/a	500	0	BLOCKED	n/a	n/a	+	0	enthusiastic	At this moment	1	2	8	207	NONE	n/a	1	n/a	n/a	n/a	n/a	n/a	0.269792467332821	n/a	n/a	n/a	n/a	4595.8947368421	1	1	0	1	0	1	0
362.24986935544	6.00484037375452	panas_none	368.254709729195	70	5	12	10	n/a	n/a	n/a	n/a	n/a	n/a	n/a	n/a	500	0	BLOCKED	n/a	n/a	+	0	nervous	At this moment	1	2	8	207	NONE	n/a	1	n/a	n/a	n/a	n/a	n/a	1	n/a	n/a	n/a	n/a	n/a	0	2	0	1	0	1	0
369.238892740488	6.00494086933139	panas_none	375.243833609819	71	5	12	10	n/a	n/a	n/a	n/a	n/a	n/a	n/a	n/a	500	0	BLOCKED	n/a	n/a	+	0	proud	At this moment	5	2	8	207	NONE	n/a	1	n/a	n/a	n/a	n/a	n/a	1	n/a	n/a	n/a	n/a	n/a	4	3	0	1	0	1	0
376.227848775148	14.6121773467064	panas_none	390.840026121855	72	5	12	10	n/a	n/a	n/a	n/a	n/a	n/a	n/a	n/a	500	0	BLOCKED	n/a	n/a	+	0	hostile	At this moment	5	2	8	207	NONE	n/a	0	652.93858863091	4.10132536495196	-0.000913684829187138	57.7254922232628	5191.50561797753	0.907763259031514	n/a	n/a	n/a	n/a	5312.00833333333	10	4	0	1	0	1	0
391.840754276037	2.51859666895865	punish_vlpfc	394.359350944996	73	4	13	10	0	0	0	0	250	250	250	750	500	0	BLOCKED	0.25	1	1	-1	guilty	At this moment	4	2	8	207	VLPFC	508.595039844513	0.644194756554307	n/a	n/a	n/a	n/a	5061.02807017544	0	3411.98225094483	2.4153806466954	-0.000816907373880495	46.930288006073	4764.16141429669	3	1	0	0	1	0	0
395.360232487679	2.51862311482432	punish_vlpfc	397.878855602503	74	4	13	10	0	0	0	0	250	250	250	750	500	0	BLOCKED	0.25	1	3	-1	attentive	At this moment	4	2	8	207	VLPFC	659.481271982193	0	14399.3530033276	-9.25295975943111	0.00217739621761993	40.6522033323312	4686.85518102372	0.431206764027671	n/a	n/a	n/a	n/a	5017.24324324324	5	2	0	0	1	0	0
398.879634181023	2.5187895503044	punish_vlpfc	401.398423731327	75	4	13	10	0	0	0	0	250	250	250	750	500	0	BLOCKED	0.25	-1	6	-1	ashamed	At this moment	4	2	8	207	VLPFC	825.400978326797	0.626716604244694	n/a	n/a	n/a	n/a	5428.45819397993	0.116833205226749	3339.9251470063	3.15187795170244	-0.00126583954500362	43.9302983055592	5035.34377719756	3	3	0	0	1	0	0
402.399150475264	2.53548032402995	punish_vlpfc	404.934630799294	76	4	13	10	0	0	0	0	250	250	250	750	500	0	BLOCKED	0.25	-1	1	1	distressed	At this moment	2	2	8	207	VLPFC	525.330948591232	0.118601747815231	32815.5207715267	-25.5680286145678	0.00580757805275894	43.2974177511578	4995.43201133145	0	3891.03886915851	2.41741745878172	-0.000932285302668294	49.630159960894	5142.72867025365	1	4	0	0	1	0	0
405.918939694881	2.51863475131989	punish_vlpfc	408.437574446201	77	4	13	10	0	0	0	0	250	250	250	750	500	0	BLOCKED	0.25	-1	6	-1	excited	At this moment	2	2	8	207	VLPFC	1192.3610458374	0.454431960049938	n/a	n/a	n/a	n/a	5741.30205949657	0	4617.6653219277	1.51282654130663	-0.00056037513294961	58.4505307273121	5423.11760184473	1	5	0	0	1	0	0
409.438325520754	2.5186185309887	punish_vlpfc	411.956944051743	78	4	13	10	0	0	0	0	250	250	250	750	500	0	BLOCKED	0.25	-1	7	-1	interested	At this moment	5	2	8	207	VLPFC	1076.17091751099	0.967540574282147	n/a	n/a	n/a	n/a	5446.15384615385	0	4509.85158418703	1.52049297944551	-0.000694217396605245	81.2171480948177	5202.78401229823	3	6	0	0	1	0	0
412.95768983674	2.51882304883003	punish_vlpfc	415.476512885571	79	4	13	10	0	0	0	0	250	250	250	750	500	0	BLOCKED	0.25	1	0	-1	ashamed	At this moment	3	2	8	207	VLPFC	794.373854398727	0.987515605493134	n/a	n/a	n/a	n/a	5157.5	0	3878.47173504764	2.43412576495502	-0.000965972890343416	54.9918935050852	5113.61952344351	3	7	0	0	1	0	0
416.477468477726	2.5185751595497	punish_vlpfc	418.996043637276	80	4	13	10	0	0	0	0	250	250	250	750	500	0	BLOCKED	0.25	-1	4	1	scared	At this moment	3	2	8	207	VLPFC	1276.43375849724	1	n/a	n/a	n/a	n/a	n/a	1	n/a	n/a	n/a	n/a	n/a	0	8	0	0	1	0	0
419.980085248709	6.00503325533867	panas_none	425.985118504047	81	5	14	10	n/a	n/a	n/a	n/a	n/a	n/a	n/a	n/a	500	0	BLOCKED	n/a	n/a	+	0	nervous	At this moment	5	2	8	207	NONE	n/a	1	n/a	n/a	n/a	n/a	n/a	1	n/a	n/a	n/a	n/a	n/a	4	1	0	1	0	0	1
426.985853005171	6.0050071618557	panas_none	432.990860167027	82	5	14	10	n/a	n/a	n/a	n/a	n/a	n/a	n/a	n/a	500	0	BLOCKED	n/a	n/a	+	0	hostile	At this moment	5	2	8	207	NONE	n/a	1	n/a	n/a	n/a	n/a	n/a	1	n/a	n/a	n/a	n/a	n/a	0	2	0	1	0	0	1
433.991545654297	6.00489467692375	panas_none	439.996440331221	83	5	14	10	n/a	n/a	n/a	n/a	n/a	n/a	n/a	n/a	500	0	BLOCKED	n/a	n/a	+	0	active	At this moment	4	2	8	207	NONE	n/a	1	n/a	n/a	n/a	n/a	n/a	1	n/a	n/a	n/a	n/a	n/a	4	3	0	1	0	0	1
440.980686813355	12.9104543190002	panas_none	453.891141132355	84	5	14	10	n/a	n/a	n/a	n/a	n/a	n/a	n/a	n/a	500	0	BLOCKED	n/a	n/a	+	0	scared	At this moment	4	2	8	207	NONE	n/a	0.816479400749064	n/a	n/a	n/a	n/a	6553.77551020408	1	n/a	n/a	n/a	n/a	n/a	22	4	0	1	0	0	1
454.87530122304	2.51863087272642	punish_vlpfc	457.393932095766	85	4	15	10	0	0	0	0	250	250	250	750	500	0	BLOCKED	0.25	1	2	-1	attentive	At this moment	3	2	8	207	VLPFC	876.56888127327	0.720349563046192	n/a	n/a	n/a	n/a	5900.30357142857	0	3704.02809644512	2.55188731530959	-0.000790616398980428	52.2383529171081	5191.24212144504	1	1	0	0	1	0	0
458.39482386446	2.51860654211049	punish_vlpfc	460.91343040657	86	4	15	10	0	0	0	0	250	250	250	750	500	0	BLOCKED	0.25	-1	10	-1	irritable	At this moment	1	2	8	207	VLPFC	624.896595001221	0	12971.6263373677	-6.62211286770438	0.00143270024525029	57.2986351419862	5459.06491885144	0	4268.30348037373	2.45830467944129	-0.00100141526203315	42.2591481390287	5495.02690238278	0	2	0	0	1	0	0
461.897607422829	2.51865379309652	punish_vlpfc	464.416261215925	87	4	15	10	0	0	0	0	250	250	250	750	500	0	BLOCKED	0.25	-1	9	-1	hostile	At this moment	2	2	8	207	VLPFC	594.370892524719	0	18332.5291101969	-12.2156579556265	0.00284796382896156	56.1179184400442	5391.04494382022	0.232897770945427	4460.40380982444	2.18856459249891	-0.00096291114296802	60.8778532160512	5537.81763527054	1	3	0	0	1	0	0
465.427729379177	2.52485914707182	punish_vlpfc	467.952588526249	88	4	15	10	0	0	0	0	250	250	250	750	500	0	BLOCKED	0.25	-1	2	1	ashamed	At this moment	4	2	8	207	VLPFC	599.163662910461	0	24635.8482956543	-17.8290515620865	0.00409500121690955	54.9722145131046	5454.53433208489	0.230591852421214	4535.02576749638	2.41889183820718	-0.0011533943362764	54.1702919625583	5653.995004995	1	4	0	0	1	0	0
468.9532299366	2.53553991675381	punish_vlpfc	471.488769853354	89	4	15	10	0	0	0	0	250	250	250	750	500	0	BLOCKED	0.25	-1	8	-1	jittery	At this moment	5	2	8	207	VLPFC	909.127420902252	0	10149.9306948841	-3.81219055348441	0.000802841823603169	58.7883822997837	5727.66292134831	0.245196003074558	5132.40167766754	0.848347281636464	-3.45064841484835e-05	53.3834894680253	5729.66802443992	1	5	0	0	1	0	0
472.472839674234	2.51879977631569	punish_vlpfc	474.99163945055	90	4	15	10	0	0	0	0	250	250	250	750	500	0	BLOCKED	0.25	-1	4	1	strong	At this moment	5	2	8	207	VLPFC	492.520993232727	0.369538077403246	n/a	n/a	n/a	n/a	5764.49900990099	0	4171.53490508226	2.10640250697186	-0.000680396965656511	41.1135757410218	5386.01229823213	1	6	0	0	1	0	0
475.992456464052	2.51872431635854	punish_vlpfc	478.511180780411	91	4	15	10	0	0	0	0	250	250	250	750	500	0	BLOCKED	0.25	-1	9	-1	inspired	At this moment	4	2	8	207	VLPFC	792.81246638298	0	9753.39793041578	-3.9491606422577	0.000951486350011052	47.3352619422551	5707.92634207241	0.461183704842429	n/a	n/a	n/a	n/a	5437.53067047076	2	7	0	0	1	0	0
479.495128243208	2.5187380685806	punish_vlpfc	482.013866311789	92	4	15	10	0	0	0	0	250	250	250	750	500	0	BLOCKED	0.25	1	1	-1	ashamed	At this moment	2	2	8	207	VLPFC	574.902201890945	0.721598002496879	n/a	n/a	n/a	n/a	5781.68609865471	0	3731.67109012951	2.59506114025383	-0.000888575592602246	47.213796798905	5171.32667179093	2	8	0	0	1	0	0
483.014752085686	6.00499058842655	panas_none	489.019742674112	93	5	16	10	n/a	n/a	n/a	n/a	n/a	n/a	n/a	n/a	500	0	BLOCKED	n/a	n/a	+	0	active	At this moment	3	2	8	207	NONE	n/a	1	n/a	n/a	n/a	n/a	n/a	0.401998462720984	n/a	n/a	n/a	n/a	5287.08740359897	2	1	0	1	0	0	1
490.020423225164	6.00514785575871	panas_none	496.025571080923	94	5	16	10	n/a	n/a	n/a	n/a	n/a	n/a	n/a	n/a	500	0	BLOCKED	n/a	n/a	+	0	alert	At this moment	1	2	8	207	NONE	n/a	1	n/a	n/a	n/a	n/a	n/a	1	n/a	n/a	n/a	n/a	n/a	0	2	0	1	0	0	1
497.026193097353	6.00483085322384	panas_none	503.031023950577	95	5	16	10	n/a	n/a	n/a	n/a	n/a	n/a	n/a	n/a	500	0	BLOCKED	n/a	n/a	+	0	determined	At this moment	1	2	8	207	NONE	n/a	1	n/a	n/a	n/a	n/a	n/a	1	n/a	n/a	n/a	n/a	n/a	3	3	0	1	0	0	1
504.03176479888	7.92341017317773	panas_none	511.955174972057	96	5	16	10	n/a	n/a	n/a	n/a	n/a	n/a	n/a	n/a	500	0	BLOCKED	n/a	n/a	+	0	nervous	At this moment	3	2	8	207	NONE	n/a	0.560549313358302	n/a	n/a	n/a	n/a	5108.83806818182	1	n/a	n/a	n/a	n/a	n/a	6	4	0	1	0	0	1
