onset	duration	trial_type	offset	trial	block	blockCntr	frequency	amplitude_1	amplitude_2	amplitude_3	amplitude_4	amplitude_5	amplitude_6	amplitude_7	amplitude_8	transition	sham	mode	rewardFraction	guess	outcome	correct	word	when	answer	runNr	scanNr	subjectNr	target	reactionTime	outcomeEyeClosed	outcomeParms_1	outcomeParms_2	outcomeParms_3	outcomeSigma	outcomePupilArea	guessEyeClosed	guessParms_1	guessParms_2	guessParms_3	guessSigma	guessPupilArea	nrBlinks	trialInBlock	isReward	isPanas	isPunish	beforePanasReward	beforePanasVLPFC
20.4900096545219	2.58026444864273	reward_rtpj	23.0702741031647	1	1	1	10	750	250	250	250	0	0	0	0	500	0	BLOCKED	0.75	-1	2	1	irritable	At this moment	3	1	7	207	RTPJ	1546.97246575356	0	22778.488013038	-16.1542367884715	0.00364779204519761	126.874737656496	5137.05243445693	0.0945426594926979	7071.83981080519	-3.7065424267742	0.00168102454135621	45.1682086098351	5281.88285229202	1	1	1	0	0	0	0
24.0755989727974	2.53096365308761	reward_rtpj	26.606562625885	2	1	1	10	750	250	250	250	0	0	0	0	500	0	BLOCKED	0.75	1	1	-1	hostile	At this moment	5	1	7	207	RTPJ	454.543787717819	0	14439.6027974894	-8.71549130742023	0.00217651676312571	114.190006993965	5855.37952559301	0	4399.98652487561	1.44183706112488	-0.000290531735889626	41.8831424052937	5375.11529592621	0	2	1	0	0	0	0
27.6006104505062	2.52547657966614	reward_rtpj	30.1260870301723	3	1	1	10	750	250	250	250	0	0	0	0	500	0	BLOCKED	0.75	-1	0	1	nervous	At this moment	3	1	7	207	RTPJ	1183.66727352142	0.406991260923845	n/a	n/a	n/a	n/a	5304.52842105263	0	4562.43094014833	1.48674106372813	-0.000508123877272461	89.2417270191579	5388.17063797079	2	3	1	0	0	0	0
31.1269008700848	2.51869575452804	reward_rtpj	33.6455966246128	4	1	1	10	750	250	250	250	0	0	0	0	500	0	BLOCKED	0.75	-1	3	1	ashamed	At this moment	2	1	7	207	RTPJ	562.376892566681	0.213483146067416	25432.7388203498	-18.2910412981582	0.0040007909956712	59.993893785738	4952.18571428571	0	3820.10994799371	2.24768700948343	-0.000761944456214196	58.5709081524759	5072.93543428132	1	4	1	0	0	0	0
34.6463413515091	2.53544647312165	reward_rtpj	37.1817878246307	5	1	1	10	750	250	250	250	0	0	0	0	500	0	BLOCKED	0.75	-1	3	1	determined	At this moment	1	1	7	207	RTPJ	592.711124181747	0.573033707865168	n/a	n/a	n/a	n/a	5327.45029239766	0	4437.35362647718	1.67863445285636	-0.000610302291695807	40.9876897292672	5337.68870099923	5	5	1	0	0	0	0
38.1826735985279	2.51869258069992	reward_rtpj	40.7013661792278	6	1	1	10	750	250	250	250	0	0	0	0	500	0	BLOCKED	0.75	-1	9	-1	enthusiastic	At this moment	2	1	7	207	RTPJ	542.200499534607	0.651685393258427	n/a	n/a	n/a	n/a	5511.39784946237	0	4024.65493078677	2.26121255414312	-0.000843038953676331	34.7742156092464	5218.87394312068	4	6	1	0	0	0	0
41.7021976501942	2.5186883494854	reward_rtpj	44.2208859996796	7	1	1	10	750	250	250	250	0	0	0	0	500	0	BLOCKED	0.75	1	7	1	active	At this moment	3	1	7	207	RTPJ	358.761721849442	0	33498.2930330322	-26.0940497444451	0.00585642989017815	48.129524615125	4789.22097378277	0	4054.41427827994	2.3644400656404	-0.00105524646516882	67.3583095863398	5151.54957724827	0	7	1	0	0	0	0
45.2217894043922	2.51863122534752	reward_rtpj	47.7404206297398	8	1	1	10	750	250	250	250	0	0	0	0	500	0	BLOCKED	0.75	1	10	1	hostile	At this moment	4	1	7	207	RTPJ	492.627835988998	0.374531835205993	n/a	n/a	n/a	n/a	5060.20558882235	0	3618.65310934143	2.76736347115493	-0.00111046452225436	64.5109709609865	5013.10530361261	1	8	1	0	0	0	0
48.7650763168335	6.01463395881653	panas_none	54.77971027565	9	5	2	10	n/a	n/a	n/a	n/a	n/a	n/a	n/a	n/a	500	0	BLOCKED	n/a	n/a	+	0	nervous	At this moment	1	1	7	207	NONE	n/a	1	n/a	n/a	n/a	n/a	n/a	0.05380476556495	3603.63006405336	2.2071310522462	-0.00114706730927395	156.023816049874	4497.86271324127	1	1	0	1	0	1	0
55.7648037438393	6.03719651150703	panas_none	61.8020002553463	10	5	2	10	n/a	n/a	n/a	n/a	n/a	n/a	n/a	n/a	500	0	BLOCKED	n/a	n/a	+	0	excited	At this moment	2	1	7	207	NONE	n/a	1	n/a	n/a	n/a	n/a	n/a	1	n/a	n/a	n/a	n/a	n/a	2	2	0	1	0	1	0
62.7861571726799	6.02152762150765	panas_none	68.8076847941876	11	5	2	10	n/a	n/a	n/a	n/a	n/a	n/a	n/a	n/a	500	0	BLOCKED	n/a	n/a	+	0	afraid	At this moment	5	1	7	207	NONE	n/a	1	n/a	n/a	n/a	n/a	n/a	1	n/a	n/a	n/a	n/a	n/a	5	3	0	1	0	1	0
69.7916763343811	11.8265938816071	panas_none	81.6182702159882	12	5	2	10	n/a	n/a	n/a	n/a	n/a	n/a	n/a	n/a	500	0	BLOCKED	n/a	1	4	-1	upset	At this moment	5	1	7	207	NONE	n/a	0	6197.14857539996	-0.702911510719021	0.000236520018867295	32.4337520265759	5776.93008739076	0.71022290545734	n/a	n/a	n/a	n/a	5790.80371352785	3	4	0	1	0	1	0
82.6204899401665	2.51714529728889	reward_rtpj	85.1376352374554	13	1	3	10	750	250	250	250	0	0	0	0	500	0	BLOCKED	0.75	1	10	1	enthusiastic	At this moment	4	1	7	207	RTPJ	823.957011699677	0.0811485642946317	21504.1433314564	-15.2789454329351	0.00336475217148098	64.5605830667295	4440.76222826087	0	3235.22533793772	2.28291690471606	-0.000646248545886625	89.7218212241621	4613.78170637971	1	1	1	0	0	0	0
86.1417368783951	2.51551620674134	reward_rtpj	88.6572530851364	14	1	3	10	750	250	250	250	0	0	0	0	500	0	BLOCKED	0.75	1	10	1	hostile	At this moment	3	1	7	207	RTPJ	705.561264276505	0	25804.1735720304	-19.3890551561034	0.00433462304493751	66.8282206900674	4433.21223470662	0	3320.46930302076	2.52351262046855	-0.000832668010781801	39.0508236572795	4759.56110684089	0	2	1	0	0	0	0
89.6577601482868	2.51876063609123	reward_rtpj	92.1765207843781	15	1	3	10	750	250	250	250	0	0	0	0	500	0	BLOCKED	0.75	1	10	1	guilty	At this moment	1	1	7	207	RTPJ	892.39186501503	0	27719.9371084064	-20.8988786119911	0.00467343382918251	63.1985824672237	4671.04494382022	0	3642.48988534091	2.54244170925206	-0.00105020237743033	46.3673205168036	4897.43966179862	0	3	1	0	0	0	0
93.1741995062828	2.52187882804871	reward_rtpj	95.6960783343315	16	1	3	10	750	250	250	250	0	0	0	0	500	0	BLOCKED	0.75	1	3	-1	jittery	At this moment	3	1	7	207	RTPJ	761.70000910759	0.374531835205993	n/a	n/a	n/a	n/a	5006.83632734531	0	3603.49977655242	2.34086206205953	-0.000868818191019495	48.3704237364198	4843.16295157571	1	4	1	0	0	0	0
96.6971654527187	2.51846267461777	reward_rtpj	99.2156281273365	17	1	3	10	750	250	250	250	0	0	0	0	500	0	BLOCKED	0.75	-1	3	1	active	At this moment	2	1	7	207	RTPJ	426.133081912994	0	25682.6428808008	-18.7307936844966	0.00410743831445568	62.8213165555115	4670.16104868914	0	3998.41007139006	2.07737081650793	-0.000831974703108494	38.4315718887038	5057.62644119908	0	5	1	0	0	0	0
100.216417989492	2.51863545656205	reward_rtpj	102.735053446054	18	1	3	10	750	250	250	250	0	0	0	0	500	0	BLOCKED	0.75	-1	0	1	hostile	At this moment	2	1	7	207	RTPJ	325.379468679428	0	25987.3175105064	-19.4427811886713	0.00436690829045675	68.9174590547514	4643.25093632959	0	3761.82507446054	2.22172580061872	-0.000894012407325343	65.142473600509	4878.1621829362	0	6	1	0	0	0	0
103.719454374552	2.51850110960007	reward_rtpj	106.237955484152	19	1	3	10	750	250	250	250	0	0	0	0	500	0	BLOCKED	0.75	-1	9	-1	upset	At this moment	4	1	7	207	RTPJ	560.295394182205	0	6017.12926707367	-1.78409826863986	0.000523709124193265	58.2997347441619	4608.12858926342	0.332052267486549	n/a	n/a	n/a	n/a	4232.50057537399	2	7	1	0	0	0	0
107.222147310495	2.51869152307511	reward_rtpj	109.74083883357	20	1	3	10	750	250	250	250	0	0	0	0	500	0	BLOCKED	0.75	1	7	1	irritable	At this moment	4	1	7	207	RTPJ	860.294195652008	0.514357053682896	n/a	n/a	n/a	n/a	4794.99742930591	0	3680.08947913274	2.26323524713805	-0.000921929107942414	40.7918086564556	4807.9239046887	2	8	1	0	0	0	0
110.741814172029	6.03824625229836	panas_none	116.780060424328	21	5	4	10	n/a	n/a	n/a	n/a	n/a	n/a	n/a	n/a	500	0	BLOCKED	n/a	n/a	+	0	strong	At this moment	4	1	7	207	NONE	n/a	1	n/a	n/a	n/a	n/a	n/a	0.116064565718678	3241.32177750918	1.95497132962653	-0.000756017896658402	189.753685244044	4219.32956521739	1	1	0	1	0	1	0
117.764109793425	6.03825859379768	panas_none	123.802368387222	22	5	4	10	n/a	n/a	n/a	n/a	n/a	n/a	n/a	n/a	500	0	BLOCKED	n/a	n/a	+	0	nervous	At this moment	2	1	7	207	NONE	n/a	1	n/a	n/a	n/a	n/a	n/a	1	n/a	n/a	n/a	n/a	n/a	1	2	0	1	0	1	0
124.786465007305	6.03847827410698	panas_none	130.824943281412	23	5	4	10	n/a	n/a	n/a	n/a	n/a	n/a	n/a	n/a	500	0	BLOCKED	n/a	n/a	+	0	proud	At this moment	1	1	7	207	NONE	n/a	1	n/a	n/a	n/a	n/a	n/a	1	n/a	n/a	n/a	n/a	n/a	1	3	0	1	0	1	0
131.808714435816	5.40440658426286	panas_none	137.213121020079	24	5	4	10	n/a	n/a	n/a	n/a	n/a	n/a	n/a	n/a	500	0	BLOCKED	n/a	-1	7	-1	upset	At this moment	4	1	7	207	NONE	n/a	0	9598.15252556982	-4.51624508078489	0.00115872185985797	43.8720571569797	5285.23096129838	0.506533435818601	n/a	n/a	n/a	n/a	5456.86292834891	1	4	0	1	0	1	0
138.197432031393	2.518615357399	reward_vlpfc	140.716047388792	25	2	5	10	0	0	0	0	250	250	250	750	500	0	BLOCKED	0.75	-1	2	1	alert	At this moment	1	1	7	207	VLPFC	558.277719497681	0	25940.3502149131	-19.4903301669331	0.00436271127648012	64.9541863438355	4472.68414481898	0	2905.76434874128	3.58819468801428	-0.00150844125291269	52.6331342119263	4664.36740968486	0	1	1	0	0	0	0
141.716865107775	2.51870033812523	reward_vlpfc	144.2355654459	26	2	5	10	0	0	0	0	250	250	250	750	500	0	BLOCKED	0.75	-1	6	-1	distressed	At this moment	1	1	7	207	VLPFC	358.502901077271	0	7310.41283807552	-1.27861145308069	6.90035394082157e-05	69.4893176348394	4932.5393258427	0	3034.90880942943	3.07374100219794	-0.0011238713390052	51.2314557391139	4683.62336664105	0	2	1	0	0	0	0
145.219739641666	2.51876980376244	reward_vlpfc	147.738509445429	27	2	5	10	0	0	0	0	250	250	250	750	500	0	BLOCKED	0.75	-1	1	1	interested	At this moment	1	1	7	207	VLPFC	1075.42231178284	0	24506.7973487908	-17.7626058862387	0.00389925194765238	65.5996755932926	4603.81148564295	0	4120.52300779656	1.75337704236126	-0.00070521953142753	49.2709264115251	5001.65411222137	0	3	1	0	0	0	0
148.739222084522	2.51875569915771	reward_vlpfc	151.25797778368	28	2	5	10	0	0	0	0	250	250	250	750	500	0	BLOCKED	0.75	-1	9	-1	guilty	At this moment	2	1	7	207	VLPFC	592.837008476257	0	13772.8857131952	-7.80298737024149	0.00165144378954376	69.3801912124586	4756.44069912609	0	3617.66506291661	2.44417664959979	-0.00102866774857782	75.6415267984144	4807.64873174481	0	4	1	0	0	0	0
152.259098400593	2.51836958360673	reward_vlpfc	154.7774679842	29	2	5	10	0	0	0	0	250	250	250	750	500	0	BLOCKED	0.75	1	10	1	enthusiastic	At this moment	4	1	7	207	VLPFC	825.439413785934	0	21413.2753764292	-14.7982419196614	0.00314748133014208	78.4266922915674	4386.07116104869	0	3355.09794130804	2.41525611995653	-0.000826791772493056	62.1171824203524	4695.76479631053	0	5	1	0	0	0	0
155.778368920565	2.53535197186471	reward_vlpfc	158.313720892429	30	2	5	10	0	0	0	0	250	250	250	750	500	0	BLOCKED	0.75	1	6	1	determined	At this moment	5	1	7	207	VLPFC	675.434371232986	0	21498.5795384652	-15.5891086073431	0.0035128667414674	107.322985504354	4441.45692883895	0.381245196003075	n/a	n/a	n/a	n/a	4236.0099378882	3	6	1	0	0	0	0
159.314411669016	2.51882410693167	reward_vlpfc	161.833235775948	31	2	5	10	0	0	0	0	250	250	250	750	500	0	BLOCKED	0.75	1	7	1	inspired	At this moment	4	1	7	207	VLPFC	1192.51690268517	0	18887.0010367744	-12.3191711230013	0.00259937567772402	76.7486765115342	4619.49812734082	0	3516.25484559635	2.42775209949318	-0.000846509561259647	38.8983319852487	4853.58493466564	0	7	1	0	0	0	0
162.834234034538	2.51851345133781	reward_vlpfc	165.352747485876	32	2	5	10	0	0	0	0	250	250	250	750	500	0	BLOCKED	0.75	1	7	1	upset	At this moment	3	1	7	207	VLPFC	627.577542304993	0	26929.7081096895	-20.6333738296996	0.00469100952185409	71.303064506683	4537.70536828964	0	3441.98246193556	2.35989845845651	-0.000812877357741238	55.3119843555507	4747.88239815527	0	8	1	0	0	0	0
166.336876194	6.038151750803	panas_none	172.375027944803	33	5	6	10	n/a	n/a	n/a	n/a	n/a	n/a	n/a	n/a	500	0	BLOCKED	n/a	n/a	+	0	attentive	At this moment	4	1	7	207	NONE	n/a	0.993757802746567	n/a	n/a	n/a	n/a	3829	0.13989239046887	3082.55415417108	2.20792417123959	-0.000849984627975647	157.137207895294	4182.44057193923	1	1	0	1	0	1	1
173.359395374537	6.02148636531828	panas_none	179.380881739855	34	5	6	10	n/a	n/a	n/a	n/a	n/a	n/a	n/a	n/a	500	0	BLOCKED	n/a	n/a	+	0	afraid	At this moment	2	1	7	207	NONE	n/a	1	n/a	n/a	n/a	n/a	n/a	1	n/a	n/a	n/a	n/a	n/a	0	2	0	1	0	1	1
180.381649739742	6.02188693833352	panas_none	186.403536678076	35	5	6	10	n/a	n/a	n/a	n/a	n/a	n/a	n/a	n/a	500	0	BLOCKED	n/a	n/a	+	0	interested	At this moment	2	1	7	207	NONE	n/a	1	n/a	n/a	n/a	n/a	n/a	1	n/a	n/a	n/a	n/a	n/a	0	3	0	1	0	1	1
187.387332163095	13.1607140212059	panas_none	200.548046184301	36	5	6	10	n/a	n/a	n/a	n/a	n/a	n/a	n/a	n/a	500	0	BLOCKED	n/a	n/a	+	0	irritable	At this moment	4	1	7	207	NONE	n/a	0	608.119547240708	4.3425255376302	-0.0010575821935418	68.5895525095381	5008.48938826467	0.528823981552652	n/a	n/a	n/a	n/a	5984.71125611746	0	4	0	1	0	1	1
201.548848740578	2.51892001867293	reward_vlpfc	204.067768759251	37	2	7	10	0	0	0	0	250	250	250	750	500	0	BLOCKED	0.75	-1	2	1	nervous	At this moment	5	1	7	207	VLPFC	825.353727817535	0.0611735330836454	12033.706144532	-6.49124320285107	0.00128601208527761	40.7633235895445	4161.18484042553	0	3443.61712922704	1.04171442551046	-0.00018671144193031	118.450946462986	4170.99385088394	1	1	1	0	0	0	0
205.051696475744	2.51874406266211	reward_vlpfc	207.570440538406	38	2	7	10	0	0	0	0	250	250	250	750	500	0	BLOCKED	0.75	-1	0	1	alert	At this moment	5	1	7	207	VLPFC	1059.05700325966	0	20527.6270285609	-13.8985143151004	0.00294283505934455	60.512578080996	4474.81647940075	0	3934.89965501512	1.44673375641209	-0.000405237671262583	42.9243575554574	4815.58647194466	0	2	1	0	0	0	0
208.571413056135	2.51866825008392	reward_vlpfc	211.090081306219	39	2	7	10	0	0	0	0	250	250	250	750	500	0	BLOCKED	0.75	1	9	1	inspired	At this moment	4	1	7	207	VLPFC	1491.38168764114	0.615480649188514	n/a	n/a	n/a	n/a	4828.07792207792	0	3981.21891460506	1.60111820972504	-0.000663973170648021	85.2936550843565	4768.5903151422	1	3	1	0	0	0	0
212.090828149319	2.51864497733115	reward_vlpfc	214.60947312665	40	2	7	10	0	0	0	0	250	250	250	750	500	0	BLOCKED	0.75	-1	3	1	upset	At this moment	1	1	7	207	VLPFC	1490.30408978462	1	n/a	n/a	n/a	n/a	n/a	1	n/a	n/a	n/a	n/a	n/a	0	4	1	0	0	0	0
215.610209038496	2.51901839876174	reward_vlpfc	218.129227437258	41	2	7	10	0	0	0	0	250	250	250	750	500	0	BLOCKED	0.75	1	1	-1	hostile	At this moment	3	1	7	207	VLPFC	708.547930002213	1	n/a	n/a	n/a	n/a	n/a	1	n/a	n/a	n/a	n/a	n/a	0	5	1	0	0	0	0
219.14389806819	2.52141619467736	reward_vlpfc	221.665314262867	42	2	7	10	0	0	0	0	250	250	250	750	500	0	BLOCKED	0.75	-1	10	-1	afraid	At this moment	5	1	7	207	VLPFC	1045.29048252106	1	n/a	n/a	n/a	n/a	n/a	1	n/a	n/a	n/a	n/a	n/a	2	6	1	0	0	0	0
222.66608719945	2.51882798552512	reward_vlpfc	225.184915184975	43	2	7	10	0	0	0	0	250	250	250	750	500	0	BLOCKED	0.75	-1	0	1	jittery	At this moment	4	1	7	207	VLPFC	594.597272634506	0.838951310861423	n/a	n/a	n/a	n/a	5929.36434108527	0.477325134511914	n/a	n/a	n/a	n/a	5342.28235294118	4	7	1	0	0	0	0
226.185693058014	2.51861712074279	reward_vlpfc	228.704310178757	44	2	7	10	0	0	0	0	250	250	250	750	500	0	BLOCKED	0.75	1	6	1	enthusiastic	At this moment	1	1	7	207	VLPFC	325.304361343384	0	22499.3773642474	-15.2588053650636	0.00322069838732244	67.9086259622819	4822.1747815231	0	4280.45240134601	1.0418548590453	-0.000170663827130955	58.0684919439531	5026.14834742506	1	8	1	0	0	0	0
229.711768028736	6.01488079071044	panas_none	235.726648819447	45	5	8	10	n/a	n/a	n/a	n/a	n/a	n/a	n/a	n/a	500	0	BLOCKED	n/a	n/a	+	0	upset	At this moment	1	1	7	207	NONE	n/a	1	n/a	n/a	n/a	n/a	n/a	0	2956.6001104989	3.6352574175316	-0.00198296436150388	111.008739534615	4340.11375864719	1	1	0	1	0	1	1
236.727385789156	6.03833088016509	panas_none	242.765716669321	46	5	8	10	n/a	n/a	n/a	n/a	n/a	n/a	n/a	n/a	500	0	BLOCKED	n/a	n/a	+	0	scared	At this moment	4	1	7	207	NONE	n/a	1	n/a	n/a	n/a	n/a	n/a	1	n/a	n/a	n/a	n/a	n/a	1	2	0	1	0	1	1
243.766714222908	6.03805548620224	panas_none	249.80476970911	47	5	8	10	n/a	n/a	n/a	n/a	n/a	n/a	n/a	n/a	500	0	BLOCKED	n/a	n/a	+	0	hostile	At this moment	1	1	7	207	NONE	n/a	1	n/a	n/a	n/a	n/a	n/a	1	n/a	n/a	n/a	n/a	n/a	0	3	0	1	0	1	1
250.788996092319	8.49014435410501	panas_none	259.279140446424	48	5	8	10	n/a	n/a	n/a	n/a	n/a	n/a	n/a	n/a	500	0	BLOCKED	n/a	n/a	+	0	inspired	At this moment	1	1	7	207	NONE	n/a	0.293383270911361	n/a	n/a	n/a	n/a	5184.90812720848	0.964642582628747	n/a	n/a	n/a	n/a	5985.15217391304	15	4	0	1	0	1	1
260.26319334197	2.51876733565331	punish_vlpfc	262.781960677624	49	4	9	10	0	0	0	0	250	250	250	750	500	0	BLOCKED	0.25	1	7	1	alert	At this moment	2	1	7	207	VLPFC	726.176312685013	0.394506866416979	n/a	n/a	n/a	n/a	4899.09072164948	0	3338.12184239199	2.77660863487011	-0.0010598402352434	36.2552977865577	4783.28900845503	1	1	0	0	1	0	0
263.793205986977	2.52501041960716	punish_vlpfc	266.318216406584	50	4	9	10	0	0	0	0	250	250	250	750	500	0	BLOCKED	0.25	1	1	-1	enthusiastic	At this moment	4	1	7	207	VLPFC	615.074800491333	0.702871410736579	n/a	n/a	n/a	n/a	5158.31092436975	0	4121.43293724114	0.929784687304022	-0.000123782731348818	57.4204810180046	4803.55495772483	2	2	0	0	1	0	0
267.302320431471	2.51894434928892	punish_vlpfc	269.82126478076	51	4	9	10	0	0	0	0	250	250	250	750	500	0	BLOCKED	0.25	-1	6	-1	excited	At this moment	1	1	7	207	VLPFC	408.343553543091	0.468164794007491	n/a	n/a	n/a	n/a	4792.27230046948	0	3697.44549594165	2.44801917377027	-0.00113078775180731	69.9179401886636	4802.91083781706	2	3	0	0	1	0	0
270.80522317481	2.5186784760952	punish_vlpfc	273.323901650906	52	4	9	10	0	0	0	0	250	250	250	750	500	0	BLOCKED	0.25	-1	3	1	ashamed	At this moment	1	1	7	207	VLPFC	558.48646903038	0	18501.8850765749	-12.6430686450605	0.002823247322148	64.6235605958698	4552.8177278402	0	4162.21140142327	2.13372109670554	-0.000976640274101135	46.0172969634815	5132.93697156034	0	4	0	0	1	0	0
274.324829738855	2.51874899935723	punish_vlpfc	276.843578738213	53	4	9	10	0	0	0	0	250	250	250	750	500	0	BLOCKED	0.25	1	1	-1	scared	At this moment	3	1	7	207	VLPFC	642.33526968956	0.696629213483146	n/a	n/a	n/a	n/a	5221.6378600823	0	3743.05811601932	2.31129791631302	-0.00089061985591426	37.3837042922854	4943.71099154497	2	5	0	0	1	0	0
277.844351674795	2.53530295801158	punish_vlpfc	280.379654632807	54	4	9	10	0	0	0	0	250	250	250	750	500	0	BLOCKED	0.25	-1	9	-1	jittery	At this moment	2	1	7	207	VLPFC	457.577704429626	0.17478152309613	8377.01647922723	-2.66237631598267	0.000519086838031099	47.0829488114453	5130.69440242057	0.41967717140661	n/a	n/a	n/a	n/a	4713.18145695364	3	6	0	0	1	0	0
281.363736442804	2.51877156686783	punish_vlpfc	283.882508009672	55	4	9	10	0	0	0	0	250	250	250	750	500	0	BLOCKED	0.25	-1	10	-1	active	At this moment	5	1	7	207	VLPFC	609.827153921127	0.750312109862672	n/a	n/a	n/a	n/a	5199.445	0	3847.77457196135	2.22976853838294	-0.000799787036592921	42.5588181658184	5052.17601844735	1	7	0	0	1	0	0
284.883445618391	2.51862417292597	punish_vlpfc	287.402069791317	56	4	9	10	0	0	0	0	250	250	250	750	500	0	BLOCKED	0.25	-1	8	-1	hostile	At this moment	1	1	7	207	VLPFC	525.967422485352	1	n/a	n/a	n/a	n/a	n/a	1	n/a	n/a	n/a	n/a	n/a	7	8	0	0	1	0	0
288.386229176998	6.02152162718772	panas_none	294.407750804186	57	5	10	10	n/a	n/a	n/a	n/a	n/a	n/a	n/a	n/a	500	0	BLOCKED	n/a	n/a	+	0	attentive	At this moment	4	1	7	207	NONE	n/a	1	n/a	n/a	n/a	n/a	n/a	1	n/a	n/a	n/a	n/a	n/a	1	1	0	1	0	0	1
295.408640456676	6.02150152802466	panas_none	301.430141984701	58	5	10	10	n/a	n/a	n/a	n/a	n/a	n/a	n/a	n/a	500	0	BLOCKED	n/a	n/a	+	0	upset	At this moment	3	1	7	207	NONE	n/a	1	n/a	n/a	n/a	n/a	n/a	1	n/a	n/a	n/a	n/a	n/a	3	2	0	1	0	0	1
302.430921620846	6.02147578692433	panas_none	308.45239740777	59	5	10	10	n/a	n/a	n/a	n/a	n/a	n/a	n/a	n/a	500	0	BLOCKED	n/a	n/a	+	0	distressed	At this moment	2	1	7	207	NONE	n/a	1	n/a	n/a	n/a	n/a	n/a	0.996156802459646	n/a	n/a	n/a	n/a	2456	1	3	0	1	0	0	1
309.436816319466	9.84130083250994	panas_none	319.278117151976	60	5	10	10	n/a	n/a	n/a	n/a	n/a	n/a	n/a	n/a	500	0	BLOCKED	n/a	n/a	+	0	hostile	At this moment	4	1	7	207	NONE	n/a	0.993757802746567	n/a	n/a	n/a	n/a	6391	0.796310530361261	n/a	n/a	n/a	n/a	6325.49433962264	23	4	0	1	0	0	1
320.278811102152	2.53529696369174	punish_rtpj	322.814108065844	61	3	11	10	750	250	250	250	0	0	0	0	500	0	BLOCKED	0.25	-1	9	-1	alert	At this moment	4	1	7	207	RTPJ	909.128831624985	0.782771535580524	n/a	n/a	n/a	n/a	5292	0	3371.10117441281	3.00429342993968	-0.00116763415868453	38.8434346118734	4916.92621060723	1	1	0	0	1	0	0
323.815171205997	2.51853637146951	punish_rtpj	326.333707577467	62	3	11	10	750	250	250	250	0	0	0	0	500	0	BLOCKED	0.25	-1	6	-1	afraid	At this moment	2	1	7	207	RTPJ	441.709233522415	1	n/a	n/a	n/a	n/a	n/a	1	n/a	n/a	n/a	n/a	n/a	13	2	0	0	1	0	0
327.334421979427	2.51885654783246	punish_rtpj	329.85327852726	63	3	11	10	750	250	250	250	0	0	0	0	500	0	BLOCKED	0.25	1	8	1	enthusiastic	At this moment	2	1	7	207	RTPJ	575.518223762512	0.333333333333333	n/a	n/a	n/a	n/a	4853.27902621723	0.822444273635665	n/a	n/a	n/a	n/a	6346.15584415584	0	3	0	0	1	0	0
330.854070857525	2.51868975973133	punish_rtpj	333.372760617256	64	3	11	10	750	250	250	250	0	0	0	0	500	0	BLOCKED	0.25	-1	6	-1	active	At this moment	3	1	7	207	RTPJ	458.541759490967	0.987515605493134	n/a	n/a	n/a	n/a	5966.5	0	4056.70999318974	2.20987323235713	-0.000910608765572235	61.9569819861381	5154.45272867025	3	4	0	0	1	0	0
334.35694715476	2.51864074587826	punish_rtpj	336.875587900639	65	3	11	10	750	250	250	250	0	0	0	0	500	0	BLOCKED	0.25	1	1	-1	jittery	At this moment	3	1	7	207	RTPJ	443.298478364944	0.846441947565543	n/a	n/a	n/a	n/a	6691.73170731707	0.814757878554958	n/a	n/a	n/a	n/a	6369.57676348548	0	5	0	0	1	0	0
337.859682404757	2.51874300503732	punish_rtpj	340.378425409794	66	3	11	10	750	250	250	250	0	0	0	0	500	0	BLOCKED	0.25	-1	4	1	proud	At this moment	1	1	7	207	RTPJ	475.145437002182	0.941323345817728	n/a	n/a	n/a	n/a	6637.17021276596	0.864719446579554	n/a	n/a	n/a	n/a	6618.09659090909	12	6	0	0	1	0	0
341.379405685186	2.5189686796665	punish_rtpj	343.898374364853	67	3	11	10	750	250	250	250	0	0	0	0	500	0	BLOCKED	0.25	-1	8	-1	inspired	At this moment	4	1	7	207	RTPJ	625.467129230499	0.877652933832709	n/a	n/a	n/a	n/a	6311.5306122449	0.751729438893159	n/a	n/a	n/a	n/a	5452.15170278638	3	7	0	0	1	0	0
344.898839114189	2.51869117021556	punish_rtpj	347.417530284405	68	3	11	10	750	250	250	250	0	0	0	0	500	0	BLOCKED	0.25	-1	10	-1	active	At this moment	5	1	7	207	RTPJ	875.524429559708	1	n/a	n/a	n/a	n/a	n/a	1	n/a	n/a	n/a	n/a	n/a	12	8	0	0	1	0	0
348.418282769203	6.02149800181388	panas_none	354.439780771017	69	5	12	10	n/a	n/a	n/a	n/a	n/a	n/a	n/a	n/a	500	0	BLOCKED	n/a	n/a	+	0	ashamed	At this moment	3	1	7	207	NONE	n/a	1	n/a	n/a	n/a	n/a	n/a	1	n/a	n/a	n/a	n/a	n/a	5	1	0	1	0	0	0
355.424082613945	6.02160907602308	panas_none	361.445691689968	70	5	12	10	n/a	n/a	n/a	n/a	n/a	n/a	n/a	n/a	500	0	BLOCKED	n/a	n/a	+	0	excited	At this moment	4	1	7	207	NONE	n/a	1	n/a	n/a	n/a	n/a	n/a	1	n/a	n/a	n/a	n/a	n/a	0	2	0	1	0	0	0
362.446436064482	6.02158897686002	panas_none	368.468025041342	71	5	12	10	n/a	n/a	n/a	n/a	n/a	n/a	n/a	n/a	500	0	BLOCKED	n/a	n/a	+	0	afraid	At this moment	5	1	7	207	NONE	n/a	1	n/a	n/a	n/a	n/a	n/a	1	n/a	n/a	n/a	n/a	n/a	0	3	0	1	0	0	0
369.468873085499	5.72148368525507	panas_none	375.190356770754	72	5	12	10	n/a	n/a	n/a	n/a	n/a	n/a	n/a	n/a	500	0	BLOCKED	n/a	n/a	+	0	upset	At this moment	1	1	7	207	NONE	n/a	0.00374531835205993	13754.9927057347	-8.18390458830872	0.00186037777740196	46.4286777788909	4880.61152882206	1	n/a	n/a	n/a	n/a	n/a	4	4	0	1	0	0	0
376.174146966457	2.51883115935323	punish_vlpfc	378.692978125811	73	4	13	10	0	0	0	0	250	250	250	750	500	0	BLOCKED	0.25	-1	2	1	proud	At this moment	4	1	7	207	VLPFC	1259.22886896133	0.975031210986267	n/a	n/a	n/a	n/a	5390.15	0	4357.62648937271	1.44229518233059	-0.000492360582359504	56.5924818804459	5159.86395080707	1	1	0	0	1	0	0
379.693999657154	2.51847889471054	punish_vlpfc	382.212478551865	74	4	13	10	0	0	0	0	250	250	250	750	500	0	BLOCKED	0.25	1	4	-1	enthusiastic	At this moment	5	1	7	207	VLPFC	1342.07588458061	0.767790262172285	n/a	n/a	n/a	n/a	5366.70967741936	0	3620.92030096374	2.24259999693224	-0.000743097466991785	58.5065381991524	4884.66102997694	2	2	0	0	1	0	0
383.213231741905	2.51881846499447	punish_vlpfc	385.7320502069	75	4	13	10	0	0	0	0	250	250	250	750	500	0	BLOCKED	0.25	-1	7	-1	active	At this moment	2	1	7	207	VLPFC	925.916574954987	0.546816479400749	n/a	n/a	n/a	n/a	5347.99449035813	0	4608.6775333808	1.20491522574868	-0.000409090628807326	36.0946777355893	5279.71714066103	4	3	0	0	1	0	0
386.732732168436	2.51880682849884	punish_vlpfc	389.251538996935	76	4	13	10	0	0	0	0	250	250	250	750	500	0	BLOCKED	0.25	-1	4	1	determined	At this moment	5	1	7	207	VLPFC	692.125850200653	0.958801498127341	n/a	n/a	n/a	n/a	5615.18181818182	0	4604.02726533154	1.206292691005	-0.000387319803465349	41.2061043374776	5294.81783243659	3	4	0	0	1	0	0
390.252387393475	2.51868552827835	punish_vlpfc	392.771072921753	77	4	13	10	0	0	0	0	250	250	250	750	500	0	BLOCKED	0.25	-1	10	-1	distressed	At this moment	2	1	7	207	VLPFC	758.571238279343	0.533083645443196	n/a	n/a	n/a	n/a	5455.04010695187	0.540353574173713	n/a	n/a	n/a	n/a	5613.61538461538	7	5	0	0	1	0	0
393.771875125408	2.53559633541107	punish_vlpfc	396.307471460819	78	4	13	10	0	0	0	0	250	250	250	750	500	0	BLOCKED	0.25	1	3	-1	enthusiastic	At this moment	1	1	7	207	VLPFC	492.082337617874	0.700374531835206	n/a	n/a	n/a	n/a	5594.9	0	4081.37798635793	2.13051271308945	-0.000728199317714705	39.9265132830961	5285.43658724058	1	6	0	0	1	0	0
397.307981344938	2.51869363880155	punish_vlpfc	399.82667498374	79	4	13	10	0	0	0	0	250	250	250	750	500	0	BLOCKED	0.25	1	1	-1	proud	At this moment	5	1	7	207	VLPFC	458.66447019577	0	14210.0959101104	-8.18901407736836	0.00185735489075672	60.8935110898155	5302.95755305868	0	3913.34140892225	2.71027814042278	-0.00113302823987589	72.6708477091521	5238.93082244427	0	7	0	0	1	0	0
400.827765275478	2.51857939076422	punish_vlpfc	403.346344666243	80	4	13	10	0	0	0	0	250	250	250	750	500	0	BLOCKED	0.25	-1	8	-1	inspired	At this moment	4	1	7	207	VLPFC	959.997715234756	0.820224719101124	n/a	n/a	n/a	n/a	5338.09722222222	0	3926.83508454854	2.25022501104946	-0.000814857899203802	46.5822557434858	5143.16064565719	7	8	0	0	1	0	0
404.347140522718	6.02156323575974	panas_none	410.368703758478	81	5	14	10	n/a	n/a	n/a	n/a	n/a	n/a	n/a	n/a	500	0	BLOCKED	n/a	n/a	+	0	scared	At this moment	1	1	7	207	NONE	n/a	1	n/a	n/a	n/a	n/a	n/a	0.267486548808609	n/a	n/a	n/a	n/a	4749.65057712487	1	1	0	1	0	0	1
411.36981802845	6.02125716423984	panas_none	417.39107519269	82	5	14	10	n/a	n/a	n/a	n/a	n/a	n/a	n/a	n/a	500	0	BLOCKED	n/a	n/a	+	0	guilty	At this moment	5	1	7	207	NONE	n/a	1	n/a	n/a	n/a	n/a	n/a	1	n/a	n/a	n/a	n/a	n/a	5	2	0	1	0	0	1
418.375322380066	6.02146027159688	panas_none	424.396782651663	83	5	14	10	n/a	n/a	n/a	n/a	n/a	n/a	n/a	n/a	500	0	BLOCKED	n/a	n/a	+	0	irritable	At this moment	2	1	7	207	NONE	n/a	1	n/a	n/a	n/a	n/a	n/a	1	n/a	n/a	n/a	n/a	n/a	0	3	0	1	0	0	1
425.380984351397	13.5943331625462	panas_none	438.975317513943	84	5	14	10	n/a	n/a	n/a	n/a	n/a	n/a	n/a	n/a	500	0	BLOCKED	n/a	n/a	+	0	excited	At this moment	2	1	7	207	NONE	n/a	0.841448189762796	n/a	n/a	n/a	n/a	5949.85826771654	0.944657955418909	n/a	n/a	n/a	n/a	5378.61111111111	26	4	0	1	0	0	1
439.982008421659	2.51281304478641	punish_rtpj	442.494821466446	85	3	15	10	750	250	250	250	0	0	0	0	500	0	BLOCKED	0.25	-1	9	-1	inspired	At this moment	1	1	7	207	RTPJ	1119.32136750221	0	18540.3027267915	-11.6707795962532	0.00246995510980041	73.7079005882176	5050.14606741573	0	3552.93922533449	2.45577742321751	-0.000763238002956011	47.0006052823878	4982.52728670254	0	1	0	0	1	0	0
443.495603923559	2.51864568257332	punish_rtpj	446.014249606133	86	3	15	10	750	250	250	250	0	0	0	0	500	0	BLOCKED	0.25	-1	1	1	hostile	At this moment	1	1	7	207	RTPJ	1490.41904306412	0	26049.4144887383	-18.8956791424771	0.00410231717140926	68.969620354624	4673.03620474407	0	4287.42590450064	1.84325137903263	-0.000722475375327654	53.1974577712082	5230.86548808609	0	2	0	0	1	0	0
446.998610336304	2.51859878468514	punish_rtpj	449.517209120989	87	3	15	10	750	250	250	250	0	0	0	0	500	0	BLOCKED	0.25	1	0	-1	proud	At this moment	4	1	7	207	RTPJ	509.435326099396	0.394506866416979	n/a	n/a	n/a	n/a	5283.69278350515	0	3324.83375588823	2.80465055787372	-0.000987446333113637	60.9389452020693	4871.19446579554	2	3	0	0	1	0	0
450.501399184227	2.5186633136272	punish_rtpj	453.020062497854	88	3	15	10	750	250	250	250	0	0	0	0	500	0	BLOCKED	0.25	-1	9	-1	determined	At this moment	4	1	7	207	RTPJ	525.201185703278	1	n/a	n/a	n/a	n/a	n/a	1	n/a	n/a	n/a	n/a	n/a	1	4	0	0	1	0	0
454.020832966089	2.51864532995222	punish_rtpj	456.539478296041	89	3	15	10	750	250	250	250	0	0	0	0	500	0	BLOCKED	0.25	1	8	1	irritable	At this moment	2	1	7	207	RTPJ	1009.17262649536	1	n/a	n/a	n/a	n/a	n/a	1	n/a	n/a	n/a	n/a	n/a	5	5	0	0	1	0	0
457.550950338125	2.5248771305084	punish_rtpj	460.075827468634	90	3	15	10	750	250	250	250	0	0	0	0	500	0	BLOCKED	0.25	1	3	-1	upset	At this moment	5	1	7	207	RTPJ	565.354038000107	1	n/a	n/a	n/a	n/a	n/a	1	n/a	n/a	n/a	n/a	n/a	15	6	0	0	1	0	0
461.059928319931	2.51895386981965	punish_rtpj	463.578882189751	91	3	15	10	750	250	250	250	0	0	0	0	500	0	BLOCKED	0.25	-1	6	-1	enthusiastic	At this moment	2	1	7	207	RTPJ	675.754900217056	1	n/a	n/a	n/a	n/a	n/a	1	n/a	n/a	n/a	n/a	n/a	2	7	0	0	1	0	0
464.579485870123	2.51878108763691	punish_rtpj	467.09826695776	92	3	15	10	750	250	250	250	0	0	0	0	500	0	BLOCKED	0.25	-1	9	-1	determined	At this moment	4	1	7	207	RTPJ	1377.24026417732	1	n/a	n/a	n/a	n/a	n/a	1	n/a	n/a	n/a	n/a	n/a	13	8	0	0	1	0	0
468.08243269062	6.0215910925865	panas_none	474.104023783207	93	5	16	10	n/a	n/a	n/a	n/a	n/a	n/a	n/a	n/a	500	0	BLOCKED	n/a	n/a	+	0	guilty	At this moment	1	1	7	207	NONE	n/a	1	n/a	n/a	n/a	n/a	n/a	1	n/a	n/a	n/a	n/a	n/a	2	1	0	1	0	0	0
475.088115466356	6.02164962720872	panas_none	481.109765093565	94	5	16	10	n/a	n/a	n/a	n/a	n/a	n/a	n/a	n/a	500	0	BLOCKED	n/a	n/a	+	0	alert	At this moment	1	1	7	207	NONE	n/a	1	n/a	n/a	n/a	n/a	n/a	1	n/a	n/a	n/a	n/a	n/a	1	2	0	1	0	0	0
482.110526746273	6.02137211728098	panas_none	488.131898863554	95	5	16	10	n/a	n/a	n/a	n/a	n/a	n/a	n/a	n/a	500	0	BLOCKED	n/a	n/a	+	0	afraid	At this moment	1	1	7	207	NONE	n/a	1	n/a	n/a	n/a	n/a	n/a	0.937740199846272	n/a	n/a	n/a	n/a	4887.14814814815	4	3	0	1	0	0	0
489.132855160952	7.57270962905881	panas_none	496.70556479001	96	5	16	10	n/a	n/a	n/a	n/a	n/a	n/a	n/a	n/a	500	0	BLOCKED	n/a	n/a	+	0	scared	At this moment	5	1	7	207	NONE	n/a	0	7988.41535156833	-2.92097633146685	0.000741758384562976	53.7419607273866	5165.56928838951	0.969254419677171	n/a	n/a	n/a	n/a	6343.725	7	4	0	1	0	0	0
