onset	duration	trial_type	offset	trial	block	blockCntr	frequency	amplitude_1	amplitude_2	amplitude_3	amplitude_4	amplitude_5	amplitude_6	amplitude_7	amplitude_8	transition	sham	mode	rewardFraction	guess	outcome	correct	word	when	answer	runNr	scanNr	subjectNr	target	reactionTime	outcomeEyeClosed	outcomeParms_1	outcomeParms_2	outcomeParms_3	outcomeSigma	outcomePupilArea	guessEyeClosed	guessParms_1	guessParms_2	guessParms_3	guessSigma	guessPupilArea	nrBlinks	trialInBlock	isReward	isPanas	isPunish	beforePanasReward	beforePanasVLPFC
20.4289588534832	2.58762188634277	punish_rtpj	23.016580739826	1	3	1	10	750	250	250	250	0	0	0	0	2000	0	BLOCKED	0.25	1	0	-1	excited	At this moment	4	1	6	213	RTPJ	1539.12052473426	0.446941323345818	n/a	n/a	n/a	n/a	718.212189616253	0.265949269792467	n/a	n/a	n/a	n/a	600.124607329843	2	1	0	0	1	0	0
24.0360204954445	2.5332483997643	punish_rtpj	26.5692688952088	2	3	1	10	750	250	250	250	0	0	0	0	2000	0	BLOCKED	0.25	-1	2	1	ashamed	At this moment	5	1	6	213	RTPJ	409.322337836027	0.398252184769039	n/a	n/a	n/a	n/a	751.064315352697	0	470.981128484638	0.192937245540114	5.61587754226296e-05	8.95225779429856	683.579554189085	1	2	0	0	1	0	0
27.5701398583055	2.5186447814107	punish_rtpj	30.0887846397161	3	3	1	10	750	250	250	250	0	0	0	0	2000	0	BLOCKED	0.25	-1	7	-1	alert	At this moment	1	1	6	213	RTPJ	301.688222706318	0.374531835205993	n/a	n/a	n/a	n/a	893.728542914172	0	563.577540487279	0.284899107564623	-1.29247978219207e-05	9.59155808275586	794.39431206764	1	3	0	0	1	0	0
31.0851495147049	2.52328133767844	punish_rtpj	33.6084308523834	4	3	1	10	750	250	250	250	0	0	0	0	2000	0	BLOCKED	0.25	-1	9	-1	nervous	At this moment	5	1	6	213	RTPJ	566.98111847043	0	1318.58526018803	-0.167880171985731	-2.30047906335228e-05	16.6345221421198	863.374531835206	0	633.701343181523	0.377396795431953	-0.000110409804333057	7.88608856539403	859.015372790161	0	4	0	0	1	0	0
34.6135762344599	2.58096131056547	punish_rtpj	37.1945375450253	5	3	1	10	750	250	250	250	0	0	0	0	2000	0	BLOCKED	0.25	1	8	1	irritable	At this moment	2	1	6	213	RTPJ	386.008383125067	0.374531835205993	n/a	n/a	n/a	n/a	785.688622754491	0	575.500098529733	0.436051468710002	-0.000142091223135283	8.93966769057083	823.415065334358	1	5	0	0	1	0	0
38.1993817924857	2.53142325595021	punish_rtpj	40.7308050484359	6	3	1	10	750	250	250	250	0	0	0	0	2000	0	BLOCKED	0.25	1	0	-1	strong	At this moment	1	1	6	213	RTPJ	568.591871261597	0.690387016229713	n/a	n/a	n/a	n/a	977.975806451613	0.230591852421214	588.613236726007	0.335975033875891	-5.74316172872324e-05	14.0097137041314	809.168831168831	2	6	0	0	1	0	0
41.7357177035511	2.54789785826206	punish_rtpj	44.2836155618131	7	3	1	10	750	250	250	250	0	0	0	0	2000	0	BLOCKED	0.25	1	1	-1	determined	At this moment	4	1	6	213	RTPJ	729.84663644433	0.47565543071161	n/a	n/a	n/a	n/a	868.152380952381	0	592.393582411002	0.535798636948937	-0.000236283252451768	11.3688717216101	844.38662567256	1	7	0	0	1	0	0
45.2934510978758	2.52659699195624	punish_rtpj	47.8200480898321	8	3	1	10	750	250	250	250	0	0	0	0	2000	0	BLOCKED	0.25	-1	9	-1	alert	At this moment	3	1	6	213	RTPJ	1474.11353057623	0.521847690387016	n/a	n/a	n/a	n/a	862.613577023499	0	565.849194205458	0.24115707684006	-6.52054684386279e-05	8.8618978332604	714.338201383551	1	8	0	0	1	0	0
48.8696506732702	6.08961046788096	panas_none	54.9592611411512	9	5	2	10	n/a	n/a	n/a	n/a	n/a	n/a	n/a	n/a	2000	0	BLOCKED	n/a	n/a	+	0	proud	At this moment	1	1	6	213	NONE	n/a	0.815230961298377	n/a	n/a	n/a	n/a	729.304054054054	0.277478862413528	n/a	n/a	n/a	n/a	942.247872340425	5	1	0	1	0	0	0
55.9686333389878	6.04606865939498	panas_none	62.0147019983828	10	5	2	10	n/a	n/a	n/a	n/a	n/a	n/a	n/a	n/a	2000	0	BLOCKED	n/a	n/a	+	0	upset	At this moment	1	1	6	213	NONE	n/a	0.750312109862672	n/a	n/a	n/a	n/a	796.41	0	1030.82045852553	-0.240082972844215	3.29633297374895e-05	29.4574542429115	855.262106072252	5	2	0	1	0	0	0
63.0032846240103	6.08410365378857	panas_none	69.0873882777989	11	5	2	10	n/a	n/a	n/a	n/a	n/a	n/a	n/a	n/a	2000	0	BLOCKED	n/a	n/a	+	0	guilty	At this moment	1	1	6	213	NONE	n/a	0.169787765293383	51.0275318949665	0.689118815653703	-0.000151105053446708	16.4413926160545	829.177443609023	0.0983858570330515	765.78071256614	-0.00103641794997758	1.67812328962918e-05	9.27977593103319	777.262574595055	3	3	0	1	0	0	0
70.0795037696361	12.4021469416916	panas_none	82.4816507113278	12	5	2	10	n/a	n/a	n/a	n/a	n/a	n/a	n/a	n/a	2000	0	BLOCKED	n/a	n/a	+	0	jittery	At this moment	3	1	6	213	NONE	n/a	0.405742821473159	n/a	n/a	n/a	n/a	895.161764705882	0.254419677171407	n/a	n/a	n/a	n/a	884.876288659794	10	4	0	1	0	0	0
83.470530592829	2.53029735103249	punish_vlpfc	86.0008279438615	13	4	3	10	0	0	0	0	250	250	250	750	2000	0	BLOCKED	0.25	-1	6	-1	hostile	At this moment	2	1	6	213	VLPFC	945.470304191113	0.770287141073658	n/a	n/a	n/a	n/a	1023.49456521739	0.253651037663336	n/a	n/a	n/a	n/a	819.194644696189	2	1	0	0	1	0	0
86.9933870274425	2.54365270644426	punish_vlpfc	89.5370397338867	14	4	3	10	0	0	0	0	250	250	250	750	2000	0	BLOCKED	0.25	-1	4	1	distressed	At this moment	1	1	6	213	VLPFC	299.480489879847	0.579275905118602	n/a	n/a	n/a	n/a	841.059347181009	0.289777094542659	n/a	n/a	n/a	n/a	848.660173160173	2	2	0	0	1	0	0
90.5419929398894	2.56490526422859	punish_vlpfc	93.106898204118	15	4	3	10	0	0	0	0	250	250	250	750	2000	0	BLOCKED	0.25	1	3	-1	enthusiastic	At this moment	2	1	6	213	VLPFC	389.89033973217	0.616729088639201	n/a	n/a	n/a	n/a	1012.35830618893	0.336664104534973	n/a	n/a	n/a	n/a	854.190034762457	2	3	0	0	1	0	0
94.0923707509935	2.53380165526271	punish_vlpfc	96.6261724062562	16	4	3	10	0	0	0	0	250	250	250	750	2000	0	BLOCKED	0.25	-1	8	-1	active	At this moment	4	1	6	213	VLPFC	797.968998670578	0.686641697877653	n/a	n/a	n/a	n/a	946.298804780876	0.521906225980015	n/a	n/a	n/a	n/a	971.638263665595	2	4	0	0	1	0	0
97.6131361688972	2.53263414156436	punish_vlpfc	100.145770310462	17	4	3	10	0	0	0	0	250	250	250	750	2000	0	BLOCKED	0.25	1	4	-1	afraid	At this moment	4	1	6	213	VLPFC	554.165266484022	0.742821473158552	n/a	n/a	n/a	n/a	1033.30582524272	0.230591852421214	689.742105193815	0.339477709012559	-7.45818648911757e-05	11.4421773641802	923.001998001998	2	5	0	0	1	0	0
101.133708352864	2.5149691055119	punish_vlpfc	103.648677458376	18	4	3	10	0	0	0	0	250	250	250	750	2000	0	BLOCKED	0.25	1	2	-1	ashamed	At this moment	2	1	6	213	VLPFC	354.117028534412	0.722846441947566	n/a	n/a	n/a	n/a	951.981981981982	0.299000768639508	n/a	n/a	n/a	n/a	942.701754385965	2	6	0	0	1	0	0
104.651066083521	2.53392401322724	punish_vlpfc	107.184990096748	19	4	3	10	0	0	0	0	250	250	250	750	2000	0	BLOCKED	0.25	1	8	1	alert	At this moment	1	1	6	213	VLPFC	342.818133383989	0.540574282147316	n/a	n/a	n/a	n/a	908.578804347826	0	600.403878787886	0.350263563941963	-6.77680712718412e-05	12.9713119822618	839.977709454266	1	7	0	0	1	0	0
108.192491663247	2.54547608712315	punish_vlpfc	110.737967750371	20	4	3	10	0	0	0	0	250	250	250	750	2000	0	BLOCKED	0.25	1	4	-1	attentive	At this moment	4	1	6	213	VLPFC	466.002289891243	0.112359550561798	1568.98309803347	-0.385929552827902	4.83245691965321e-05	17.9841688775932	981.893108298172	0.230591852421214	641.461134266108	0.403832747979848	-0.000113845215474688	12.7664820389152	903.138861138861	2	8	0	0	1	0	0
111.745053934455	6.09839873257279	panas_none	117.843452667028	21	5	4	10	n/a	n/a	n/a	n/a	n/a	n/a	n/a	n/a	2000	0	BLOCKED	n/a	n/a	+	0	scared	At this moment	1	1	6	213	NONE	n/a	0	657.487947187541	0.317871448995138	-0.000105332870764906	10.3389924296367	855.548064918851	0.47271329746349	n/a	n/a	n/a	n/a	824.52332361516	5	1	0	1	0	0	1
118.848755316108	6.10047070798278	panas_none	124.949226024091	22	5	4	10	n/a	n/a	n/a	n/a	n/a	n/a	n/a	n/a	2000	0	BLOCKED	n/a	n/a	+	0	irritable	At this moment	2	1	6	213	NONE	n/a	0.440699126092385	n/a	n/a	n/a	n/a	715.245535714286	0	570.16919948594	0.144594031029154	-5.80567297245308e-05	8.95858666933387	643.093774019985	2	2	0	1	0	0	1
125.951643916428	6.10330680361392	panas_none	132.054950720042	23	5	4	10	n/a	n/a	n/a	n/a	n/a	n/a	n/a	n/a	2000	0	BLOCKED	n/a	n/a	+	0	active	At this moment	1	1	6	213	NONE	n/a	0.438202247191011	n/a	n/a	n/a	n/a	857.877777777778	0.238278247501922	1206.47355091839	-0.735183842269546	0.00029659817233061	19.5231714051182	792.181634712412	5	3	0	1	0	0	1
133.041938460618	5.55169166073202	panas_none	138.59363012135	24	5	4	10	n/a	n/a	n/a	n/a	n/a	n/a	n/a	n/a	2000	0	BLOCKED	n/a	n/a	+	0	upset	At this moment	5	1	6	213	NONE	n/a	0.511860174781523	n/a	n/a	n/a	n/a	976.879795396419	0.584166026133743	n/a	n/a	n/a	n/a	882.260628465804	5	4	0	1	0	0	1
139.587674426198	2.59222882282737	reward_vlpfc	142.179903249025	25	2	5	10	0	0	0	0	250	250	250	750	2000	0	BLOCKED	0.75	-1	9	-1	scared	At this moment	2	1	6	213	VLPFC	911.83173418045	0.601747815230961	n/a	n/a	n/a	n/a	1000.03134796238	0.813989239046887	n/a	n/a	n/a	n/a	781.760330578512	2	1	1	0	0	0	0
143.166431882739	2.54965706267953	reward_vlpfc	145.716088945419	26	2	5	10	0	0	0	0	250	250	250	750	2000	0	BLOCKED	0.75	-1	4	1	interested	At this moment	1	1	6	213	VLPFC	330.391570180655	0.942571785268414	n/a	n/a	n/a	n/a	995.152173913043	0	692.96487322852	0.266145211464514	-5.43892338966138e-05	12.3482547465354	872.398923904689	2	2	1	0	0	0	0
146.721328828782	2.54760377594829	reward_vlpfc	149.26893260473	27	2	5	10	0	0	0	0	250	250	250	750	2000	0	BLOCKED	0.75	-1	3	1	nervous	At this moment	1	1	6	213	VLPFC	332.91418966651	0.739076154806492	n/a	n/a	n/a	n/a	1033.44976076555	0.280553420445811	n/a	n/a	n/a	n/a	847.090811965812	2	3	1	0	0	0	0
150.257106900305	2.56501528063416	reward_vlpfc	152.822122180939	28	2	5	10	0	0	0	0	250	250	250	750	2000	0	BLOCKED	0.75	-1	7	-1	attentive	At this moment	2	1	6	213	VLPFC	400.007263898849	1	n/a	n/a	n/a	n/a	n/a	0.917755572636433	n/a	n/a	n/a	n/a	741.700934579439	20	4	1	0	0	0	0
153.809878978431	2.53164152568579	reward_vlpfc	156.341520504117	29	2	5	10	0	0	0	0	250	250	250	750	2000	0	BLOCKED	0.75	-1	3	1	jittery	At this moment	4	1	6	213	VLPFC	285.809542566538	0.761548064918851	n/a	n/a	n/a	n/a	899.869109947644	0	659.543647591858	0.431676297441297	-0.000164430000710513	14.0081886941454	885.252113758647	1	5	1	0	0	0	0
157.346556222409	2.51434003740547	reward_vlpfc	159.860896259814	30	2	5	10	0	0	0	0	250	250	250	750	2000	0	BLOCKED	0.75	-1	2	1	interested	At this moment	3	1	6	213	VLPFC	695.085334986448	0.403245942571785	n/a	n/a	n/a	n/a	795.230125523013	0	568.96234619974	0.433396425655203	-0.000135977032516567	9.68377934537811	822.234435049962	1	6	1	0	0	0	0
160.846491517246	2.51719693747162	reward_vlpfc	163.363688454717	31	2	5	10	0	0	0	0	250	250	250	750	2000	0	BLOCKED	0.75	-1	3	1	upset	At this moment	3	1	6	213	VLPFC	310.559352248907	0.415730337078652	n/a	n/a	n/a	n/a	797.666666666667	0	603.791612265832	0.255120331619374	-5.86869469668795e-05	10.7714014289831	769.787086856264	1	7	1	0	0	0	0
164.353726681888	2.54641440001129	reward_vlpfc	166.900141081899	32	2	5	10	0	0	0	0	250	250	250	750	2000	0	BLOCKED	0.75	-1	1	1	active	At this moment	3	1	6	213	VLPFC	358.186577230692	0.374531835205993	n/a	n/a	n/a	n/a	790.642714570858	0	511.653042705835	0.351174580284854	-0.00010154536683855	11.1232366278668	722.7809377402	1	8	1	0	0	0	0
167.887556899071	6.05136425617337	panas_none	173.938921155244	33	5	6	10	n/a	n/a	n/a	n/a	n/a	n/a	n/a	n/a	2000	0	BLOCKED	n/a	n/a	+	0	inspired	At this moment	1	1	6	213	NONE	n/a	0	1769.50226737674	-1.2313232987314	0.000300889104237495	8.14799748093601	526.458177278402	0	441.351999723293	0.591323358022843	-0.00033664734362842	32.6435939401287	655.495772482706	3	1	0	1	0	1	1
174.927010470241	6.06769675391914	panas_none	180.99470722416	34	5	6	10	n/a	n/a	n/a	n/a	n/a	n/a	n/a	n/a	2000	0	BLOCKED	n/a	n/a	+	0	irritable	At this moment	1	1	6	213	NONE	n/a	0	-407.075828914903	1.07817236529602	-0.000246210561484319	8.51950589976036	758.247191011236	0	687.448621599245	0.156152188425722	-9.19737977435062e-05	10.7308938806585	740.906225980015	2	2	0	1	0	1	1
181.999843085587	6.01727257370948	panas_none	188.017115659297	35	5	6	10	n/a	n/a	n/a	n/a	n/a	n/a	n/a	n/a	2000	0	BLOCKED	n/a	n/a	+	0	hostile	At this moment	1	1	6	213	NONE	n/a	0.466916354556804	n/a	n/a	n/a	n/a	680.88056206089	0	746.222460822395	0.0520800724226525	-4.90282595736339e-05	20.6652657406143	748.122982321291	2	3	0	1	0	1	1
189.005373172432	13.3900049401522	panas_none	202.395378112584	36	5	6	10	n/a	n/a	n/a	n/a	n/a	n/a	n/a	n/a	2000	0	BLOCKED	n/a	n/a	+	0	upset	At this moment	3	1	6	213	NONE	n/a	0.424469413233458	n/a	n/a	n/a	n/a	979.761388286334	0.863950807071484	n/a	n/a	n/a	n/a	836.54802259887	7	4	0	1	0	1	1
203.382571076036	2.5324222189486	punish_vlpfc	205.914993294984	37	4	7	10	0	0	0	0	250	250	250	750	2000	0	BLOCKED	0.25	1	3	-1	strong	At this moment	5	1	6	213	VLPFC	737.695530354977	0.293383270911361	n/a	n/a	n/a	n/a	886.565371024735	0.203689469638739	579.672935746554	0.118846866960052	2.96881266864411e-05	9.43774820832232	682.970077220077	3	1	0	0	1	0	0
206.919264893025	2.53203363537787	punish_vlpfc	209.451298528403	38	4	7	10	0	0	0	0	250	250	250	750	2000	0	BLOCKED	0.25	1	4	-1	afraid	At this moment	3	1	6	213	VLPFC	529.672161728144	0.761548064918851	n/a	n/a	n/a	n/a	874.549738219895	0	545.283976715138	0.0622938372670457	9.13373872995832e-05	13.457617926399	676.674865488086	1	2	0	0	1	0	0
210.456535590798	2.56450716006756	punish_vlpfc	213.021042750865	39	4	7	10	0	0	0	0	250	250	250	750	2000	0	BLOCKED	0.25	1	2	-1	jittery	At this moment	3	1	6	213	VLPFC	729.448532253504	0.64294631710362	n/a	n/a	n/a	n/a	942.741258741259	0.401998462720984	n/a	n/a	n/a	n/a	897.206940874036	2	3	0	0	1	0	0
214.026202590227	2.5477314231992	punish_vlpfc	216.573934013426	40	4	7	10	0	0	0	0	250	250	250	750	2000	0	BLOCKED	0.25	1	7	1	active	At this moment	1	1	6	213	VLPFC	441.402694910765	0.466916354556804	n/a	n/a	n/a	n/a	897.487119437939	0.259031514219831	n/a	n/a	n/a	n/a	916.753112033195	2	4	0	0	1	0	0
217.566746275723	2.55990868639947	punish_vlpfc	220.126654962122	41	4	7	10	0	0	0	0	250	250	250	750	2000	0	BLOCKED	0.25	1	3	-1	nervous	At this moment	3	1	6	213	VLPFC	409.845268279314	0.675405742821473	n/a	n/a	n/a	n/a	958.511538461538	0	663.79971984872	0.177603829618791	1.00596518235351e-05	10.8223182433478	823.58954650269	1	5	0	0	1	0	0
221.114839130968	2.51465351361037	punish_vlpfc	223.629492644578	42	4	7	10	0	0	0	0	250	250	250	750	2000	0	BLOCKED	0.25	-1	8	-1	guilty	At this moment	1	1	6	213	VLPFC	385.75837790966	0.791510611735331	n/a	n/a	n/a	n/a	887.988023952096	0.737893927747886	n/a	n/a	n/a	n/a	838.401759530792	2	6	0	0	1	0	0
224.632301588774	2.54995890253784	punish_vlpfc	227.182260491312	43	4	7	10	0	0	0	0	250	250	250	750	2000	0	BLOCKED	0.25	-1	3	1	upset	At this moment	1	1	6	213	VLPFC	337.42662486434	0.68039950062422	n/a	n/a	n/a	n/a	845.27734375	0.0238278247501922	602.166482901921	0.461714947437276	-0.000223912637274105	11.1744775528603	802.105511811024	2	7	0	0	1	0	0
228.171147777736	2.54729594165087	punish_vlpfc	230.718443719387	44	4	7	10	0	0	0	0	250	250	250	750	2000	0	BLOCKED	0.25	-1	9	-1	excited	At this moment	3	1	6	213	VLPFC	353.094792872667	0.66916354556804	n/a	n/a	n/a	n/a	888.750943396226	0.323597232897771	n/a	n/a	n/a	n/a	846.0875	2	8	0	0	1	0	0
231.72363247329	6.10075950098039	panas_none	237.82439197427	45	5	8	10	n/a	n/a	n/a	n/a	n/a	n/a	n/a	n/a	2000	0	BLOCKED	n/a	n/a	+	0	strong	At this moment	1	1	6	213	NONE	n/a	0.406991260923845	n/a	n/a	n/a	n/a	647.661052631579	0.259800153727902	n/a	n/a	n/a	n/a	828.414330218069	8	1	0	1	0	0	1
238.810645919651	6.05253635385631	panas_none	244.863182273507	46	5	8	10	n/a	n/a	n/a	n/a	n/a	n/a	n/a	n/a	2000	0	BLOCKED	n/a	n/a	+	0	active	At this moment	1	1	6	213	NONE	n/a	0.101123595505618	508.716948205032	0.139018156946819	-7.65549154905562e-06	13.1932762697408	762.463888888889	0.115295926210607	599.33168572284	0.0711432482210813	3.83571802906533e-05	13.3638118502362	681.459600347524	5	2	0	1	0	0	1
245.868281815439	6.01755925104021	panas_none	251.88584106648	47	5	8	10	n/a	n/a	n/a	n/a	n/a	n/a	n/a	n/a	2000	0	BLOCKED	n/a	n/a	+	0	afraid	At this moment	1	1	6	213	NONE	n/a	0.561797752808989	n/a	n/a	n/a	n/a	687.008547008547	0.229823212913144	670.376330965109	0.0311663153036151	-1.14900251620877e-05	10.9496122537815	688.760479041916	4	3	0	1	0	0	1
252.890670504063	15.0079176541269	panas_none	267.89858815819	48	5	8	10	n/a	n/a	n/a	n/a	n/a	n/a	n/a	n/a	2000	0	BLOCKED	n/a	n/a	+	0	scared	At this moment	4	1	6	213	NONE	n/a	0.846441947565543	n/a	n/a	n/a	n/a	915.008130081301	0.777094542659493	n/a	n/a	n/a	n/a	689.579310344828	19	4	0	1	0	0	1
268.903873881698	2.59788444116708	reward_rtpj	271.501758322865	49	1	9	10	750	250	250	250	0	0	0	0	2000	0	BLOCKED	0.75	-1	2	1	inspired	At this moment	3	1	6	213	RTPJ	1032.14135977626	0.399500624219725	n/a	n/a	n/a	n/a	783.704781704782	0.779400461183705	n/a	n/a	n/a	n/a	637.787456445993	1	1	1	0	0	0	0
272.512270177692	2.5254534561634	reward_rtpj	275.037723633856	50	1	9	10	750	250	250	250	0	0	0	0	2000	0	BLOCKED	0.75	-1	7	-1	nervous	At this moment	2	1	6	213	RTPJ	310.832630127668	0.816479400749064	n/a	n/a	n/a	n/a	906.993197278912	0.323597232897771	n/a	n/a	n/a	n/a	771.885227272727	2	2	1	0	0	0	0
276.026445190459	2.54757556664947	reward_rtpj	278.574020757109	51	1	9	10	750	250	250	250	0	0	0	0	2000	0	BLOCKED	0.75	-1	0	1	ashamed	At this moment	3	1	6	213	RTPJ	285.696705281734	0.739076154806492	n/a	n/a	n/a	n/a	853.296650717703	0.474250576479631	n/a	n/a	n/a	n/a	816.542397660819	3	3	1	0	0	0	0
279.562770875692	2.51402797165514	reward_rtpj	282.076798847348	52	1	9	10	750	250	250	250	0	0	0	0	2000	0	BLOCKED	0.75	-1	3	1	distressed	At this moment	4	1	6	213	RTPJ	351.624734073877	0.617977528089888	n/a	n/a	n/a	n/a	811.843137254902	0.266717909300538	n/a	n/a	n/a	n/a	759.518867924528	2	4	1	0	0	0	0
283.082566597819	2.53070885467531	reward_rtpj	285.613275452495	53	1	9	10	750	250	250	250	0	0	0	0	2000	0	BLOCKED	0.75	-1	1	1	determined	At this moment	2	1	6	213	RTPJ	291.05189421773	0.52059925093633	n/a	n/a	n/a	n/a	834.010416666667	0.384319754035357	n/a	n/a	n/a	n/a	773.805243445693	2	5	1	0	0	0	0
286.617834080428	2.53170534932616	reward_rtpj	289.149539429754	54	1	9	10	750	250	250	250	0	0	0	0	2000	0	BLOCKED	0.75	-1	3	1	inspired	At this moment	1	1	6	213	RTPJ	340.065960496664	0.418227215980025	n/a	n/a	n/a	n/a	771.077253218884	0.350499615680246	n/a	n/a	n/a	n/a	790.534911242604	2	6	1	0	0	0	0
290.13899055022	2.56328005412223	reward_rtpj	292.702270604342	55	1	9	10	750	250	250	250	0	0	0	0	2000	0	BLOCKED	0.75	-1	4	1	attentive	At this moment	2	1	6	213	RTPJ	330.915205895901	0.496878901373283	n/a	n/a	n/a	n/a	716.75682382134	0.329746348962337	n/a	n/a	n/a	n/a	686.021788990826	2	7	1	0	0	0	0
293.691258033901	2.51388551455733	reward_rtpj	296.205143548459	56	1	9	10	750	250	250	250	0	0	0	0	2000	0	BLOCKED	0.75	-1	9	-1	excited	At this moment	4	1	6	213	RTPJ	367.883182346821	0.583021223470662	n/a	n/a	n/a	n/a	847.419161676647	0	548.882585008451	0.174548701472726	2.25675850122007e-05	11.0963562642198	716.989239046887	1	8	1	0	0	0	0
297.210651420444	6.08335575386883	panas_none	303.294007174313	57	5	10	10	n/a	n/a	n/a	n/a	n/a	n/a	n/a	n/a	2000	0	BLOCKED	n/a	n/a	+	0	proud	At this moment	1	1	6	213	NONE	n/a	0.360799001248439	n/a	n/a	n/a	n/a	676.65234375	0.719446579554189	n/a	n/a	n/a	n/a	635.227397260274	12	1	0	1	0	1	0
304.281781955242	6.05133816254141	panas_none	310.333120117784	58	5	10	10	n/a	n/a	n/a	n/a	n/a	n/a	n/a	n/a	2000	0	BLOCKED	n/a	n/a	+	0	afraid	At this moment	1	1	6	213	NONE	n/a	0.833957553058677	n/a	n/a	n/a	n/a	723.135338345865	0.445810914681015	n/a	n/a	n/a	n/a	755.718446601942	4	2	0	1	0	1	0
311.319259110093	6.10291434130073	panas_none	317.422173451394	59	5	10	10	n/a	n/a	n/a	n/a	n/a	n/a	n/a	n/a	2000	0	BLOCKED	n/a	n/a	+	0	distressed	At this moment	1	1	6	213	NONE	n/a	0.940074906367041	n/a	n/a	n/a	n/a	743.375	0.00307455803228286	666.926258781948	0.315364059455395	-0.000117309736907332	11.4164134429475	830.88434849653	12	3	0	1	0	1	0
318.423006331921	5.80486794331665	panas_none	324.227874275237	60	5	10	10	n/a	n/a	n/a	n/a	n/a	n/a	n/a	n/a	2000	0	BLOCKED	n/a	n/a	+	0	nervous	At this moment	2	1	6	213	NONE	n/a	0.725343320848939	n/a	n/a	n/a	n/a	915.459090909091	0.821675634127594	n/a	n/a	n/a	n/a	685.362068965517	10	4	0	1	0	1	0
325.2377478939	2.55947814145685	reward_rtpj	327.797226035357	61	1	11	10	750	250	250	250	0	0	0	0	2000	0	BLOCKED	0.75	1	0	-1	ashamed	At this moment	1	1	6	213	RTPJ	915.539145559072	0	2301.52782824	-1.1407891390615	0.00020936564687842	15.7763259782609	840.611735330836	0.867794004611837	n/a	n/a	n/a	n/a	739.337209302326	1	1	1	0	0	0	0
328.785559008449	2.54802726855877	reward_rtpj	331.333586277008	62	1	11	10	750	250	250	250	0	0	0	0	2000	0	BLOCKED	0.75	1	9	1	afraid	At this moment	3	1	6	213	RTPJ	462.501511842012	0.880149812734082	n/a	n/a	n/a	n/a	925.416666666667	0.305918524212144	n/a	n/a	n/a	n/a	849.048726467331	2	2	1	0	0	0	0
332.32231030193	2.53058367574215	reward_rtpj	334.852893977672	63	1	11	10	750	250	250	250	0	0	0	0	2000	0	BLOCKED	0.75	1	3	-1	irritable	At this moment	4	1	6	213	RTPJ	330.338325083256	0.746566791510612	n/a	n/a	n/a	n/a	950.024630541872	0.60261337432744	n/a	n/a	n/a	n/a	859.535783365571	2	3	1	0	0	0	0
335.857706137031	2.53194477599862	reward_rtpj	338.38965091303	64	1	11	10	750	250	250	250	0	0	0	0	2000	0	BLOCKED	0.75	1	9	1	upset	At this moment	1	1	6	213	RTPJ	1094.60387220979	0.441947565543071	n/a	n/a	n/a	n/a	821.261744966443	0.528823981552652	n/a	n/a	n/a	n/a	891.724306688418	2	4	1	0	0	0	0
339.397499454319	2.57802859789132	reward_rtpj	341.975528052211	65	1	11	10	750	250	250	250	0	0	0	0	2000	0	BLOCKED	0.75	1	9	1	hostile	At this moment	3	1	6	213	RTPJ	469.137757092714	0.434456928838951	n/a	n/a	n/a	n/a	810.657836644592	0.295157571099154	n/a	n/a	n/a	n/a	762.615049073064	2	5	1	0	0	0	0
342.978314781547	2.53334713241458	reward_rtpj	345.511661913961	66	1	11	10	750	250	250	250	0	0	0	0	2000	0	BLOCKED	0.75	1	8	1	distressed	At this moment	1	1	6	213	RTPJ	373.823362350464	0.394506866416979	n/a	n/a	n/a	n/a	739.79793814433	0	539.415736654862	0.417681457391542	-0.000134006438401198	8.89516612645324	778.717909300538	1	6	1	0	0	0	0
346.516860893786	2.54769757196306	reward_rtpj	349.064558465749	67	1	11	10	750	250	250	250	0	0	0	0	2000	0	BLOCKED	0.75	1	10	1	excited	At this moment	3	1	6	213	RTPJ	386.000272929668	0.454431960049938	n/a	n/a	n/a	n/a	731.508009153318	0.255188316679477	n/a	n/a	n/a	n/a	758.270381836945	2	7	1	0	0	0	0
350.075393317401	2.52539280614258	reward_rtpj	352.600786123544	68	1	11	10	750	250	250	250	0	0	0	0	2000	0	BLOCKED	0.75	1	6	1	alert	At this moment	4	1	6	213	RTPJ	433.812621623278	0.410736579275905	n/a	n/a	n/a	n/a	688.182203389831	0	549.442440500125	0.383190549109899	-0.000163202272026714	12.7465737645155	733.962336664105	1	8	1	0	0	0	0
353.591415336192	6.04852075555925	panas_none	359.639936091751	69	5	12	10	n/a	n/a	n/a	n/a	n/a	n/a	n/a	n/a	2000	0	BLOCKED	n/a	n/a	+	0	upset	At this moment	1	1	6	213	NONE	n/a	1	n/a	n/a	n/a	n/a	n/a	0.125288239815527	116.965619544598	1.37571893346984	-0.000689032121254328	31.6030539815069	727.311950790861	8	1	0	1	0	1	0
360.64188359347	6.03943911385534	panas_none	366.681322707325	70	5	12	10	n/a	n/a	n/a	n/a	n/a	n/a	n/a	n/a	2000	0	BLOCKED	n/a	n/a	+	0	distressed	At this moment	1	1	6	213	NONE	n/a	0	1020.63247389362	-0.3665674375214	0.000106602864267098	14.3677473247823	727	0.05380476556495	744.908201810035	-0.181465282943352	9.35312777245644e-05	13.4185747408387	669.171405361495	10	2	0	1	0	1	0
367.667610151261	6.10067522558569	panas_none	373.768285376847	71	5	12	10	n/a	n/a	n/a	n/a	n/a	n/a	n/a	n/a	2000	0	BLOCKED	n/a	n/a	+	0	proud	At this moment	1	1	6	213	NONE	n/a	0.584269662921348	n/a	n/a	n/a	n/a	670.351351351351	0.552651806302844	n/a	n/a	n/a	n/a	560.254295532646	8	3	0	1	0	1	0
374.756585203975	9.73676356455684	panas_none	384.493348768532	72	5	12	10	n/a	n/a	n/a	n/a	n/a	n/a	n/a	n/a	2000	0	BLOCKED	n/a	n/a	+	0	irritable	At this moment	5	1	6	213	NONE	n/a	0.803995006242197	n/a	n/a	n/a	n/a	716.71974522293	0.823981552651806	n/a	n/a	n/a	n/a	549.82096069869	11	4	0	1	0	1	0
385.482013201237	2.54758226633072	reward_vlpfc	388.029595467567	73	2	13	10	0	0	0	0	250	250	250	750	2000	0	BLOCKED	0.75	-1	7	-1	alert	At this moment	3	1	6	213	VLPFC	838.581620693207	0.833957553058677	n/a	n/a	n/a	n/a	689.609022556391	0.815526518063028	n/a	n/a	n/a	n/a	413.420833333333	7	1	1	0	0	0	0
389.017389289826	2.56515068542956	reward_vlpfc	391.582539975256	74	2	13	10	0	0	0	0	250	250	250	750	2000	0	BLOCKED	0.75	1	9	1	afraid	At this moment	5	1	6	213	VLPFC	601.262508630753	0.667915106117353	n/a	n/a	n/a	n/a	643.721804511278	0.212913143735588	334.77606926673	0.429897980217303	-0.000132703497775692	17.7019740387323	618.0986328125	2	2	1	0	0	0	0
392.566547047347	2.55231543955205	reward_vlpfc	395.118862486899	75	2	13	10	0	0	0	0	250	250	250	750	2000	0	BLOCKED	0.75	1	6	1	strong	At this moment	3	1	6	213	VLPFC	362.983221411705	0.470661672908864	n/a	n/a	n/a	n/a	541.971698113208	0	508.746619688237	-0.00866438750060947	1.89895696692313e-05	17.0112906992996	518.893159108378	1	3	1	0	0	0	0
396.123231407136	2.56513058626649	reward_vlpfc	398.688361993402	76	2	13	10	0	0	0	0	250	250	250	750	2000	0	BLOCKED	0.75	1	7	1	jittery	At this moment	1	1	6	213	VLPFC	664.472920954227	0.446941323345818	n/a	n/a	n/a	n/a	569.349887133183	0.252882398155265	n/a	n/a	n/a	n/a	521.207818930041	2	4	1	0	0	0	0
399.696372385711	2.51133997499943	reward_vlpfc	402.20771236071	77	2	13	10	0	0	0	0	250	250	250	750	2000	0	BLOCKED	0.75	1	0	-1	determined	At this moment	3	1	6	213	VLPFC	389.177348911762	0.631710362047441	n/a	n/a	n/a	n/a	648.183050847458	0.303612605687932	n/a	n/a	n/a	n/a	576.169977924945	2	5	1	0	0	0	0
403.196251967132	2.5476601946354	reward_vlpfc	405.743912161767	78	2	13	10	0	0	0	0	250	250	250	750	2000	0	BLOCKED	0.75	1	9	1	alert	At this moment	4	1	6	213	VLPFC	405.648072361946	0.888888888888889	n/a	n/a	n/a	n/a	623.606741573034	0	413.005949567234	0.32527214835814	-0.000127597374283924	14.7969561683553	580.526518063028	3	6	1	0	0	0	0
406.748109357685	2.54870499774819	reward_vlpfc	409.296814355433	79	2	13	10	0	0	0	0	250	250	250	750	2000	0	BLOCKED	0.75	1	6	1	enthusiastic	At this moment	3	1	6	213	VLPFC	511.465859144926	0.528089887640449	n/a	n/a	n/a	n/a	520.724867724868	0	323.90523292623	0.696889674161542	-0.000385561972995778	38.9241858867252	582.98001537279	1	7	1	0	0	0	0
410.301856068224	2.5311260001659	reward_vlpfc	412.83298206839	80	2	13	10	0	0	0	0	250	250	250	750	2000	0	BLOCKED	0.75	1	10	1	afraid	At this moment	3	1	6	213	VLPFC	385.327480345964	0.49063670411985	n/a	n/a	n/a	n/a	521.205882352941	0.231360491929285	344.402819807645	0.561558667753262	-0.000304494875577028	51.6401489447507	560.651	2	8	1	0	0	0	0
413.82725310576	6.04485777381063	panas_none	419.87211087957	81	5	14	10	n/a	n/a	n/a	n/a	n/a	n/a	n/a	n/a	2000	0	BLOCKED	n/a	n/a	+	0	distressed	At this moment	1	1	6	213	NONE	n/a	0.287141073657928	n/a	n/a	n/a	n/a	421.378283712785	0.496541122213682	n/a	n/a	n/a	n/a	478.945038167939	11	1	0	1	0	1	1
420.877497804046	6.08380534011127	panas_none	426.961303144157	82	5	14	10	n/a	n/a	n/a	n/a	n/a	n/a	n/a	n/a	2000	0	BLOCKED	n/a	n/a	+	0	jittery	At this moment	2	1	6	213	NONE	n/a	0.440699126092385	n/a	n/a	n/a	n/a	456.497767857143	0.303612605687932	n/a	n/a	n/a	n/a	606.526490066225	11	2	0	1	0	1	1
427.949655511141	6.05074647179248	panas_none	434.000401982933	83	5	14	10	n/a	n/a	n/a	n/a	n/a	n/a	n/a	n/a	2000	0	BLOCKED	n/a	n/a	+	0	active	At this moment	1	1	6	213	NONE	n/a	1	n/a	n/a	n/a	n/a	n/a	0.292851652574942	n/a	n/a	n/a	n/a	493.767391304348	18	3	0	1	0	1	1
434.989201115221	13.155827642411	panas_none	448.145028757632	84	5	14	10	n/a	n/a	n/a	n/a	n/a	n/a	n/a	n/a	2000	0	BLOCKED	n/a	n/a	+	0	ashamed	At this moment	4	1	6	213	NONE	n/a	0.888888888888889	n/a	n/a	n/a	n/a	510.707865168539	0.800153727901614	n/a	n/a	n/a	n/a	357.484615384615	21	4	0	1	0	1	1
449.150379715234	2.54751315346357	punish_rtpj	451.697892868698	85	3	15	10	750	250	250	250	0	0	0	0	2000	0	BLOCKED	0.25	-1	10	-1	proud	At this moment	4	1	6	213	RTPJ	790.802770584822	0.913857677902622	n/a	n/a	n/a	n/a	351.159420289855	0.803228285933897	n/a	n/a	n/a	n/a	387.83984375	16	1	0	0	1	0	0
452.706806312263	2.52742810937764	punish_rtpj	455.234234421641	86	3	15	10	750	250	250	250	0	0	0	0	2000	0	BLOCKED	0.25	-1	0	1	attentive	At this moment	3	1	6	213	RTPJ	348.294975072145	1	n/a	n/a	n/a	n/a	n/a	0.382782475019216	n/a	n/a	n/a	n/a	316.348692403487	13	2	0	0	1	0	0
456.224114676565	2.54645671400431	punish_rtpj	458.770571390569	87	3	15	10	750	250	250	250	0	0	0	0	2000	0	BLOCKED	0.25	-1	7	-1	afraid	At this moment	2	1	6	213	RTPJ	308.366781949997	0.705368289637953	n/a	n/a	n/a	n/a	420.677966101695	0.916218293620292	n/a	n/a	n/a	n/a	344.605504587156	6	3	0	0	1	0	0
459.775570084125	2.54758826082946	punish_rtpj	462.323158344954	88	3	15	10	750	250	250	250	0	0	0	0	2000	0	BLOCKED	0.25	1	2	-1	upset	At this moment	2	1	6	213	RTPJ	370.902991265059	1	n/a	n/a	n/a	n/a	n/a	1	n/a	n/a	n/a	n/a	n/a	5	4	0	0	1	0	0
463.311816077977	2.59763126239181	punish_rtpj	465.909447340369	89	3	15	10	750	250	250	250	0	0	0	0	2000	0	BLOCKED	0.25	1	1	-1	guilty	At this moment	2	1	6	213	RTPJ	923.738187789917	1	n/a	n/a	n/a	n/a	n/a	1	n/a	n/a	n/a	n/a	n/a	5	5	0	0	1	0	0
466.898043365479	2.53104172477123	punish_rtpj	469.42908509025	90	3	15	10	750	250	250	250	0	0	0	0	2000	0	BLOCKED	0.25	1	4	-1	scared	At this moment	1	1	6	213	RTPJ	523.388180494308	1	n/a	n/a	n/a	n/a	n/a	1	n/a	n/a	n/a	n/a	n/a	7	6	0	0	1	0	0
470.417177578777	2.54799870660901	punish_rtpj	472.965176285386	91	3	15	10	750	250	250	250	0	0	0	0	2000	0	BLOCKED	0.25	-1	1	1	attentive	At this moment	5	1	6	213	RTPJ	302.038371026516	1	n/a	n/a	n/a	n/a	n/a	0.843197540353574	n/a	n/a	n/a	n/a	365.647058823529	10	7	0	0	1	0	0
473.952625953764	2.54889223718641	punish_rtpj	476.50151819095	92	3	15	10	750	250	250	250	0	0	0	0	2000	0	BLOCKED	0.25	-1	8	-1	hostile	At this moment	5	1	6	213	RTPJ	281.878219634295	0.752808988764045	n/a	n/a	n/a	n/a	436.878787878788	0	208.656353551238	0.285066886856847	-9.76012271637663e-05	19.6340285559937	366.772482705611	3	8	0	0	1	0	0
477.509699602336	6.08107079800965	panas_none	483.590770400345	93	5	16	10	n/a	n/a	n/a	n/a	n/a	n/a	n/a	n/a	2000	0	BLOCKED	n/a	n/a	+	0	interested	At this moment	1	1	6	213	NONE	n/a	0.918851435705368	n/a	n/a	n/a	n/a	281.784615384615	0.026902382782475	369.747511326395	-0.204861405775814	8.76669966360047e-05	27.8006815351649	271.005529225908	16	1	0	1	0	0	0
484.579207747966	6.06724434673788	panas_none	490.646452094704	94	5	16	10	n/a	n/a	n/a	n/a	n/a	n/a	n/a	n/a	2000	0	BLOCKED	n/a	n/a	+	0	excited	At this moment	1	1	6	213	NONE	n/a	0.945068664169788	n/a	n/a	n/a	n/a	326.545454545455	0.12913143735588	265.044542020383	0.148272823904139	-6.37604771785175e-05	15.8379183989135	334.751103265666	20	2	0	1	0	0	0
491.635106301576	6.05037093505263	panas_none	497.685477236629	95	5	16	10	n/a	n/a	n/a	n/a	n/a	n/a	n/a	n/a	2000	0	BLOCKED	n/a	n/a	+	0	distressed	At this moment	1	1	6	213	NONE	n/a	0.963795255930087	n/a	n/a	n/a	n/a	293.344827586207	0.121445042275173	167.436730878269	0.769035811411741	-0.00049185758680581	51.5927087286755	414.433070866142	11	3	0	1	0	0	0
498.694330735356	7.64790522792936	panas_none	506.342235963285	96	5	16	10	n/a	n/a	n/a	n/a	n/a	n/a	n/a	n/a	2000	0	BLOCKED	n/a	n/a	+	0	strong	At this moment	3	1	6	213	NONE	n/a	1	n/a	n/a	n/a	n/a	n/a	0.853189853958493	n/a	n/a	n/a	n/a	372.167539267016	22	4	0	1	0	0	0
