onset	duration	trial_type	offset	trial	block	blockCntr	frequency	amplitude_1	amplitude_2	amplitude_3	amplitude_4	amplitude_5	amplitude_6	amplitude_7	amplitude_8	transition	sham	mode	rewardFraction	guess	outcome	correct	word	when	answer	runNr	scanNr	subjectNr	target	reactionTime	outcomeEyeClosed	outcomeParms_1	outcomeParms_2	outcomeParms_3	outcomeSigma	outcomePupilArea	guessEyeClosed	guessParms_1	guessParms_2	guessParms_3	guessSigma	guessPupilArea	nrBlinks	trialInBlock	isReward	isPanas	isPunish	beforePanasReward	beforePanasVLPFC
20.3279666255377	2.5134302864559	reward_vlpfc	22.8413969119936	1	2	1	10	0	0	0	0	250	250	250	750	2000	0	BLOCKED	0.75	-1	3	1	interested	At this moment	3	3	11	230	VLPFC	452.683606605977	0	16567.2761436505	-13.2827183960832	0.00302498116875975	33.3369903846555	2165.7315855181	0.246733282090699	1886.23419658483	-0.343545593303303	0.000506416949582574	43.3501307344429	2068.98265306122	1	1	1	0	0	0	0
23.8422114564404	2.51874527714402	reward_vlpfc	26.3609567335844	2	2	1	10	0	0	0	0	250	250	250	750	2000	0	BLOCKED	0.75	-1	1	1	guilty	At this moment	5	3	11	230	VLPFC	340.977121878415	0	9089.56290539317	-6.47567148845969	0.00150821338267755	34.7632277105943	2221.39076154806	0.230591852421214	1116.53344596358	1.09021945320045	-0.000181501821942055	25.5348070311534	1895.997002997	1	2	1	0	0	0	0
27.3449786155596	2.51875303470716	reward_vlpfc	29.8637316502668	3	2	1	10	0	0	0	0	250	250	250	750	2000	0	BLOCKED	0.75	1	4	-1	enthusiastic	At this moment	1	3	11	230	VLPFC	641.167076468468	0	3123.05218051222	-0.868124164931634	0.000238048518540502	22.989977381897	2362.54806491885	0	1120.67887700799	0.861920614745693	-5.3457207616931e-05	45.6223344299976	1807.00614911606	0	3	1	0	0	0	0
30.8478314605244	2.51888350286707	reward_vlpfc	33.3667149633914	4	2	1	10	0	0	0	0	250	250	250	750	2000	0	BLOCKED	0.75	1	0	-1	upset	At this moment	1	3	11	230	VLPFC	490.376210223883	0	2456.05964204324	-0.214838728314294	9.14840942498454e-05	21.5287461710877	2412.99001248439	0	1202.17668363173	1.20946281307393	-0.000347916865943711	23.2350859166879	1929.93159108378	1	4	1	0	0	0	0
34.3507491869517	2.51869062155858	reward_vlpfc	36.8694398085102	5	2	1	10	0	0	0	0	250	250	250	750	2000	0	BLOCKED	0.75	1	9	1	afraid	At this moment	5	3	11	230	VLPFC	958.054134409875	0	10145.0842275031	-7.34904163488439	0.00169588769154336	42.1128259890569	2278.37453183521	0	1499.31359542376	0.929988915778234	-0.000238575228238925	19.637667709364	2083.73943120676	0	5	1	0	0	0	0
37.853480731789	2.51879816963896	reward_vlpfc	40.372278901428	6	2	1	10	0	0	0	0	250	250	250	750	2000	0	BLOCKED	0.75	-1	4	1	determined	At this moment	2	3	11	230	VLPFC	707.161749839783	0	14144.226815297	-11.0113351686247	0.00250926896098683	33.8091488207899	2197.19975031211	0	1305.54337542805	0.941116114991206	-0.000165985939007144	49.1984035119457	1961.7909300538	0	6	1	0	0	0	0
41.3564770917259	2.51867863259465	reward_vlpfc	43.8751557243206	7	2	1	10	0	0	0	0	250	250	250	750	2000	0	BLOCKED	0.75	1	8	1	hostile	At this moment	2	3	11	230	VLPFC	606.44033144787	0	11293.2579747134	-8.47415194775362	0.00194847149306848	39.0616576103035	2181.20099875156	0	1321.8781549729	0.303073216547136	0.000221252255698455	67.6719107615875	1770.46579554189	0	7	1	0	0	0	0
44.8592840965278	2.51869238464534	reward_vlpfc	47.3779764811732	8	2	1	10	0	0	0	0	250	250	250	750	2000	0	BLOCKED	0.75	1	9	1	jittery	At this moment	3	3	11	230	VLPFC	890.111606694758	0	8727.98720651611	-6.0545327893397	0.00140225369746954	30.5918522714517	2268.6329588015	0	1252.64014541408	1.05038497931968	-0.000221476154486432	19.1856135989776	1953.66487317448	0	8	1	0	0	0	0
48.3786570312977	6.02166864543408	panas_none	54.4003256767318	9	5	2	10	n/a	n/a	n/a	n/a	n/a	n/a	n/a	n/a	2000	0	BLOCKED	n/a	n/a	+	0	alert	At this moment	3	3	11	230	NONE	n/a	0	-293.470487958772	0.964226215126804	-9.57289783782167e-05	21.5226456192546	1303.94881398252	0	1868.22281009776	-0.516626618803872	0.000150848247049554	135.912881621899	1561.05918524212	1	1	0	1	0	1	1
55.3845055309683	6.02155616072192	panas_none	61.4060616916902	10	5	2	10	n/a	n/a	n/a	n/a	n/a	n/a	n/a	n/a	2000	0	BLOCKED	n/a	n/a	+	0	enthusiastic	At this moment	3	3	11	230	NONE	n/a	0	1317.44376692893	-0.439941288770348	0.000203600383109526	32.9330400398044	1301.78152309613	0.306687163720215	n/a	n/a	n/a	n/a	1560.59534368071	5	2	0	1	0	1	1
62.3927514712028	6.01908890205994	panas_none	68.4118403732628	11	5	2	10	n/a	n/a	n/a	n/a	n/a	n/a	n/a	n/a	2000	0	BLOCKED	n/a	n/a	+	0	active	At this moment	3	3	11	230	NONE	n/a	0	-1861.06659897596	2.26479807457044	-0.000419211352380416	22.6658646930831	1024.4456928839	0.0261337432744043	1596.32578078306	-0.969728050308376	0.000297970648818222	19.3528729137183	994.76637726914	2	3	0	1	0	1	1
69.3958788282238	6.68866700682416	panas_none	76.084545835048	12	5	2	10	n/a	n/a	n/a	n/a	n/a	n/a	n/a	n/a	2000	0	BLOCKED	n/a	n/a	+	0	excited	At this moment	4	3	11	230	NONE	n/a	0.387016229712859	n/a	n/a	n/a	n/a	1484.53156822811	0	1098.07821091469	0.716483159113771	-0.000257024279464802	27.3112378973941	1487.33666410453	3	4	0	1	0	1	1
77.0691026364751	2.51837185611575	reward_rtpj	79.5874744925909	13	1	3	10	750	250	250	250	0	0	0	0	2000	0	BLOCKED	0.75	1	10	1	guilty	At this moment	1	3	11	230	RTPJ	306.355456620455	0	2561.65349874521	-1.17658727889283	0.000321122941383466	25.0815550928188	1524.14232209738	0.232129131437356	628.854850820333	0.499087055450106	4.65117662276155e-05	45.8746450959637	1081.02602602603	1	1	1	0	0	0	0
80.5716370686106	2.51863772906363	reward_rtpj	83.0902747976743	14	1	3	10	750	250	250	250	0	0	0	0	2000	0	BLOCKED	0.75	1	10	1	hostile	At this moment	4	3	11	230	RTPJ	1040.6291950345	0	4812.36909831202	-3.19051603782387	0.000763644761531922	30.0764049746864	1520.37578027466	0.00691775557263643	789.549749662271	0.633201566646541	-0.000114179715026783	27.6274321075488	1243.53095975232	1	2	1	0	0	0	0
84.0744394893944	2.51863067673148	reward_rtpj	86.5930701661259	15	1	3	10	750	250	250	250	0	0	0	0	2000	0	BLOCKED	0.75	-1	7	-1	afraid	At this moment	3	3	11	230	RTPJ	525.092376746237	0	2002.21655004973	-0.542630616672302	0.000185726754343682	24.299405903209	1691.04868913858	0.264411990776326	n/a	n/a	n/a	n/a	1384.35945663532	1	3	1	0	0	0	0
87.5774143397175	2.51872165182606	reward_rtpj	90.0961359915435	16	1	3	10	750	250	250	250	0	0	0	0	2000	0	BLOCKED	0.75	-1	7	-1	interested	At this moment	2	3	11	230	RTPJ	590.900868527591	0	3024.55258019533	-1.5048883324616	0.000409135807632355	23.6265171580774	1690.68539325843	0.303612605687932	n/a	n/a	n/a	n/a	1431.81346578366	1	4	1	0	0	0	0
91.0802202866673	2.51874774545804	reward_rtpj	93.5989680321254	17	1	3	10	750	250	250	250	0	0	0	0	2000	0	BLOCKED	0.75	-1	4	1	jittery	At this moment	4	3	11	230	RTPJ	1258.3445847407	0	7091.30486431254	-5.16825065447313	0.00121977887607021	34.2126529631427	1682.49687890137	0	1228.44384584181	0.276945949414931	4.62260811380548e-05	23.5263488022903	1504.40430438125	0	5	1	0	0	0	0
94.5828971759267	2.51879464347287	reward_rtpj	97.1016918193996	18	1	3	10	750	250	250	250	0	0	0	0	2000	0	BLOCKED	0.75	-1	1	1	upset	At this moment	2	3	11	230	RTPJ	524.484113033861	0	8925.00361095796	-6.7899588215743	0.0015560694266179	39.343707811935	1612.21972534332	0.293620292083013	n/a	n/a	n/a	n/a	1491.55386289445	1	6	1	0	0	0	0
98.0911968902014	2.51331639127807	reward_rtpj	100.604513281479	19	1	3	10	750	250	250	250	0	0	0	0	2000	0	BLOCKED	0.75	1	6	1	nervous	At this moment	3	3	11	230	RTPJ	518.11761951074	0	4720.45502925691	-2.80229909421257	0.000638390853102929	36.4396601839285	1685.39950062422	0	1108.29801266014	0.602648622399535	-0.000125901269947168	24.9870382482436	1511.81091468101	0	7	1	0	0	0	0
101.588790457908	2.51862609271706	reward_rtpj	104.107416550625	20	1	3	10	750	250	250	250	0	0	0	0	2000	0	BLOCKED	0.75	1	7	1	active	At this moment	4	3	11	230	RTPJ	741.024584081024	0	5240.6563757179	-3.31348644488925	0.000747070142681886	28.4368493501097	1616.59300873908	0	880.045977284071	0.659222764550967	-6.67607004384433e-05	41.7225387136794	1383.64258262875	0	8	1	0	0	0	0
105.091520944897	6.02190630904958	panas_none	111.113427253947	21	5	4	10	n/a	n/a	n/a	n/a	n/a	n/a	n/a	n/a	2000	0	BLOCKED	n/a	n/a	+	0	interested	At this moment	4	3	11	230	NONE	n/a	0	4735.52447550875	-3.19979028638843	0.000713315994262465	23.0154820288329	1198.89762796504	0.88162951575711	n/a	n/a	n/a	n/a	1431.83116883117	8	1	0	1	0	1	0
112.097223813891	6.0215427612923	panas_none	118.118766575184	22	5	4	10	n/a	n/a	n/a	n/a	n/a	n/a	n/a	n/a	2000	0	BLOCKED	n/a	n/a	+	0	upset	At this moment	1	3	11	230	NONE	n/a	0	1460.46170637442	0.316281316958494	-8.52320407510816e-05	22.4186957107769	1744.60299625468	0	1662.61097024305	0.274004226334242	-0.000116558955381321	50.2964047028765	1795.32897770945	0	2	0	1	0	1	0
119.102814903412	6.02166794019938	panas_none	125.124482843611	23	5	4	10	n/a	n/a	n/a	n/a	n/a	n/a	n/a	n/a	2000	0	BLOCKED	n/a	n/a	+	0	guilty	At this moment	3	3	11	230	NONE	n/a	0	967.110439846651	0.120562069828568	-3.13258251032219e-05	18.8309045016182	1080.03995006242	0	1323.60056828912	-0.197943897480238	2.4040514521479e-05	20.7847657213826	1175.2574942352	4	3	0	1	0	1	0
126.108582301252	10.692018628031	panas_none	136.800600929283	24	5	4	10	n/a	n/a	n/a	n/a	n/a	n/a	n/a	n/a	2000	0	BLOCKED	n/a	n/a	+	0	attentive	At this moment	5	3	11	230	NONE	n/a	0	5386.26009142894	-4.02620394662955	0.000942243097510646	15.5272962046647	1137.02996254682	0.453497309761722	n/a	n/a	n/a	n/a	989.662447257384	8	4	0	1	0	1	0
137.801428167932	2.51880310627072	punish_rtpj	140.320231274202	25	3	5	10	750	250	250	250	0	0	0	0	2000	0	BLOCKED	0.25	-1	9	-1	scared	At this moment	1	3	11	230	RTPJ	423.898804664612	0	1461.80102736871	0.448816993194877	-3.72107190951446e-05	31.1461833527231	2240.04119850187	0	1018.92717218856	0.710799235610706	-4.18681377295439e-05	32.1958195968672	1586.618754804	0	1	0	0	1	0	0
141.304195327051	2.51868462707847	punish_rtpj	143.822879954129	26	3	5	10	750	250	250	250	0	0	0	0	2000	0	BLOCKED	0.25	1	3	-1	jittery	At this moment	1	3	11	230	RTPJ	357.300098981708	0.725343320848939	n/a	n/a	n/a	n/a	2348.12727272727	0.499615680245965	n/a	n/a	n/a	n/a	1914.22580645161	7	2	0	0	1	0	0
144.807175819241	2.51865465466307	punish_rtpj	147.325830473904	27	3	5	10	750	250	250	250	0	0	0	0	2000	0	BLOCKED	0.25	-1	0	1	determined	At this moment	2	3	11	230	RTPJ	390.409391447902	0.0736579275905119	4929.49733242262	-2.37778548879596	0.000516830661701128	61.5916502661235	2245.03234501348	0	1380.05745158195	0.79719290932706	-0.00013451991229937	32.7868271961154	1941.3043812452	2	3	0	0	1	0	0
148.310037832238	2.51862432963401	punish_rtpj	150.828662161872	28	3	5	10	750	250	250	250	0	0	0	0	2000	0	BLOCKED	0.25	1	3	-1	excited	At this moment	2	3	11	230	RTPJ	357.406236588955	0.298377028714107	n/a	n/a	n/a	n/a	2184.56227758007	0.535741737125288	n/a	n/a	n/a	n/a	1692.19536423841	4	4	0	0	1	0	0
151.812698148515	2.51880557458475	punish_rtpj	154.3315037231	29	3	5	10	750	250	250	250	0	0	0	0	2000	0	BLOCKED	0.25	-1	6	-1	afraid	At this moment	1	3	11	230	RTPJ	339.686192341149	0.436953807740325	n/a	n/a	n/a	n/a	2245.28603104213	0.610299769408148	n/a	n/a	n/a	n/a	1927.06903353057	7	5	0	0	1	0	0
155.315652547073	2.51874069312586	punish_rtpj	157.834393240198	30	3	5	10	750	250	250	250	0	0	0	0	2000	0	BLOCKED	0.25	1	1	-1	irritable	At this moment	4	3	11	230	RTPJ	440.333561237901	0.970037453183521	n/a	n/a	n/a	n/a	2137.25	0.630284396617986	n/a	n/a	n/a	n/a	1947.35966735967	6	6	0	0	1	0	0
158.81848000364	2.51880522196367	punish_rtpj	161.337285225604	31	3	5	10	750	250	250	250	0	0	0	0	2000	0	BLOCKED	0.25	1	10	1	upset	At this moment	1	3	11	230	RTPJ	1040.49414286017	1	n/a	n/a	n/a	n/a	n/a	1	n/a	n/a	n/a	n/a	n/a	1	7	0	0	1	0	0
162.321316275615	2.51871177856253	punish_rtpj	164.840028054178	32	3	5	10	750	250	250	250	0	0	0	0	2000	0	BLOCKED	0.25	1	2	-1	inspired	At this moment	1	3	11	230	RTPJ	1056.80548361689	0.767790262172285	n/a	n/a	n/a	n/a	2195.50537634409	0.265180630284397	n/a	n/a	n/a	n/a	1702.89539748954	8	8	0	0	1	0	0
165.840878565524	6.02161822125316	panas_none	171.862496786777	33	5	6	10	n/a	n/a	n/a	n/a	n/a	n/a	n/a	n/a	2000	0	BLOCKED	n/a	n/a	+	0	strong	At this moment	1	3	11	230	NONE	n/a	0	-3974.41218744065	5.11322211597241	-0.00120009816710774	74.1728374916875	1412.50561797753	0.126056879323597	878.741012999753	1.04612203500037	-0.000376822085347131	121.379284275172	1492.22427440633	4	1	0	1	0	0	0
172.84654793594	6.0215071470067	panas_none	178.868055082947	34	5	6	10	n/a	n/a	n/a	n/a	n/a	n/a	n/a	n/a	2000	0	BLOCKED	n/a	n/a	+	0	alert	At this moment	3	3	11	230	NONE	n/a	0	1157.50880564319	-0.178505050707418	6.52107768242162e-05	18.5581918707217	1073.84269662921	0	1150.47963967325	-0.0653319371562566	5.84884123419119e-05	18.8707998804959	1144.94542659493	2	2	0	1	0	0	0
179.852343190491	6.02144508648291	panas_none	185.873788276974	35	5	6	10	n/a	n/a	n/a	n/a	n/a	n/a	n/a	n/a	2000	0	BLOCKED	n/a	n/a	+	0	nervous	At this moment	3	3	11	230	NONE	n/a	0	4246.55749664274	-3.50330320719117	0.000907918799783113	49.6302541140642	942.493133583021	0	706.892214907752	0.352464351747096	-0.000104590644270171	23.7946035926602	917.058416602613	2	3	0	1	0	0	0
186.857834842119	9.45783709886672	panas_none	196.315671940986	36	5	6	10	n/a	n/a	n/a	n/a	n/a	n/a	n/a	n/a	2000	0	BLOCKED	n/a	n/a	+	0	irritable	At this moment	1	3	11	230	NONE	n/a	0.0724094881398252	-388.99354906402	1.2643966295689	-0.000239786638220697	27.5552776869316	1190.10363391655	0.0814757878554958	704.452971809902	0.103848173366391	9.33559470684841e-05	30.632091967386	886.597489539749	5	4	0	1	0	0	0
197.316334155045	2.51877489693837	punish_rtpj	199.835109051984	37	3	7	10	750	250	250	250	0	0	0	0	2000	0	BLOCKED	0.25	1	0	-1	strong	At this moment	2	3	11	230	RTPJ	1457.56593666598	0	-439.746133198713	1.56563440217021	-0.000297087411707471	23.1999047840223	1522.60424469413	0	735.441050321579	-0.163241139812728	0.00035330097825174	29.3586494418732	901.477325134512	0	1	0	0	1	0	0
200.819175011043	2.51883977840095	punish_rtpj	203.338014789443	38	3	7	10	750	250	250	250	0	0	0	0	2000	0	BLOCKED	0.25	-1	6	-1	enthusiastic	At this moment	2	3	11	230	RTPJ	350.66984821111	0.619225967540574	n/a	n/a	n/a	n/a	1754.53442622951	0	950.810083378316	0.639283833276398	-0.000110559206135259	20.1979203205873	1399.10760953113	1	2	0	0	1	0	0
204.322140693333	2.51865148111432	punish_rtpj	206.840792174447	39	3	7	10	750	250	250	250	0	0	0	0	2000	0	BLOCKED	0.25	1	7	1	distressed	At this moment	1	3	11	230	RTPJ	856.796386100352	0	11199.7465400029	-8.86740933399244	0.00204031352525652	40.9988682660714	1680.65792759051	0	976.803392532019	0.856847226545438	-0.000214234284442792	30.9860992755953	1520.69792467333	0	3	0	0	1	0	0
207.824938177481	2.51869344249741	punish_rtpj	210.343631619979	40	3	7	10	750	250	250	250	0	0	0	0	2000	0	BLOCKED	0.25	1	1	-1	irritable	At this moment	1	3	11	230	RTPJ	456.352935414761	0.826466916354557	n/a	n/a	n/a	n/a	1818.87769784173	0	1142.27781143905	0.660335816015522	-0.000159551166915707	32.3874788805893	1566.39892390469	1	4	0	0	1	0	0
211.327757171251	2.5190622795038	punish_rtpj	213.846819450755	41	3	7	10	750	250	250	250	0	0	0	0	2000	0	BLOCKED	0.25	-1	9	-1	inspired	At this moment	1	3	11	230	RTPJ	324.37028837949	0	1878.22126119141	-0.140951527750342	4.07444917985008e-05	42.6257569503151	1765.72034956305	0	1029.82304364784	0.498412004105092	-2.32145728538801e-05	32.4854970141082	1433.99154496541	0	5	0	0	1	0	0
214.83069534944	2.51882285280524	punish_rtpj	217.349518202245	42	3	7	10	750	250	250	250	0	0	0	0	2000	0	BLOCKED	0.25	1	10	1	enthusiastic	At this moment	2	3	11	230	RTPJ	756.614118561149	0	6242.53348406569	-4.20013126346745	0.000931213454298578	38.0500341820398	1577.50686641698	0	928.392819311523	0.805497972864065	-0.000205032079903207	26.6427399711937	1436.7048424289	0	6	0	0	1	0	0
218.350153970055	2.51870684192701	punish_rtpj	220.868860811982	43	3	7	10	750	250	250	250	0	0	0	0	2000	0	BLOCKED	0.25	-1	9	-1	determined	At this moment	1	3	11	230	RTPJ	940.204679857939	0.779026217228464	n/a	n/a	n/a	n/a	1619.90395480226	0	920.29672273287	0.448539465823318	-7.73570174901159e-06	30.596906309047	1294.9900076864	1	7	0	0	1	0	0
221.85292253964	2.51868568492679	punish_rtpj	224.371608224567	44	3	7	10	750	250	250	250	0	0	0	0	2000	0	BLOCKED	0.25	-1	9	-1	attentive	At this moment	3	3	11	230	RTPJ	323.804691284895	0.157303370786517	754.164147839069	0.726637597289705	-9.44863347918881e-05	44.4596229650891	1877.72	0.33358954650269	n/a	n/a	n/a	n/a	1580.99307958478	2	8	0	0	1	0	0
225.372767628096	6.02135058522222	panas_none	231.394118213318	45	5	8	10	n/a	n/a	n/a	n/a	n/a	n/a	n/a	n/a	2000	0	BLOCKED	n/a	n/a	+	0	jittery	At this moment	5	3	11	230	NONE	n/a	0	-4689.5353002047	5.26991621264626	-0.00116176163433611	62.8954005015556	1191.95255930087	0.0868562644119908	880.254087007195	0.953680890593127	-0.000471161889930702	84.71176235375	1304.01094276094	2	1	0	1	0	0	0
232.378171478178	6.02173176381365	panas_none	238.399903241992	46	5	8	10	n/a	n/a	n/a	n/a	n/a	n/a	n/a	n/a	2000	0	BLOCKED	n/a	n/a	+	0	enthusiastic	At this moment	3	3	11	230	NONE	n/a	0.202247191011236	5285.09598122459	-4.18498428845122	0.00105905504102098	33.8465626269354	1191.35524256651	0	1446.26571983453	-0.900854509796527	0.000599244825941431	55.8850272795952	1197.70714834743	1	2	0	1	0	0	0
239.383903966971	6.02153394587339	panas_none	245.405437912844	47	5	8	10	n/a	n/a	n/a	n/a	n/a	n/a	n/a	n/a	2000	0	BLOCKED	n/a	n/a	+	0	nervous	At this moment	3	3	11	230	NONE	n/a	0	2007.52893933662	-0.819550689777636	0.00017996560507948	18.4462484899428	1089.50811485643	0	1219.14975847964	-0.276677822841346	0.000139535523094569	16.8717077151592	1101.34127594158	2	3	0	1	0	0	0
246.389556059167	9.52448728658632	panas_none	255.914043345753	48	5	8	10	n/a	n/a	n/a	n/a	n/a	n/a	n/a	n/a	2000	0	BLOCKED	n/a	n/a	+	0	attentive	At this moment	2	3	11	230	NONE	n/a	1	n/a	n/a	n/a	n/a	n/a	1	n/a	n/a	n/a	n/a	n/a	10	4	0	1	0	0	0
256.898040191948	2.51885353044793	reward_vlpfc	259.416893722396	49	2	9	10	0	0	0	0	250	250	250	750	2000	0	BLOCKED	0.75	1	8	1	proud	At this moment	5	3	11	230	VLPFC	490.308507826179	0	3909.05844952846	-2.43124710587962	0.000581858088445604	28.6770083596764	1400.06367041198	0.367409684857802	n/a	n/a	n/a	n/a	1073.96840826245	1	1	1	0	0	0	0
260.418722392317	2.51761584603042	reward_vlpfc	262.936338238347	50	2	9	10	0	0	0	0	250	250	250	750	2000	0	BLOCKED	0.75	1	7	1	jittery	At this moment	4	3	11	230	VLPFC	472.02921358496	0	3390.84491348992	-1.89502025952813	0.00047272162410034	36.1888714777593	1522.15230961298	0.305149884704074	n/a	n/a	n/a	n/a	1350.60730088496	1	2	1	0	0	0	0
263.920530081548	2.51865535989776	reward_vlpfc	266.439185441446	51	2	9	10	0	0	0	0	250	250	250	750	2000	0	BLOCKED	0.75	-1	6	-1	enthusiastic	At this moment	2	3	11	230	VLPFC	656.776357479393	0	2702.32579328848	-1.45764193784488	0.000428424727816929	34.2925815166615	1554.00998751561	0	1076.10967085304	-0.0388033618016214	0.000209442536391136	48.478351295984	1224.26825518832	0	3	1	0	0	0	0
267.423348017465	2.51864548663048	reward_vlpfc	269.941993504096	52	2	9	10	0	0	0	0	250	250	250	750	2000	0	BLOCKED	0.75	-1	3	1	active	At this moment	3	3	11	230	VLPFC	373.15444855392	0	3214.51817731564	-1.61822951073308	0.000398872927872473	42.1896448983197	1596.79900124844	0.3543428132206	n/a	n/a	n/a	n/a	1342.39880952381	1	4	1	0	0	0	0
270.926583098873	2.51830909034612	reward_vlpfc	273.44489218922	53	2	9	10	0	0	0	0	250	250	250	750	2000	0	BLOCKED	0.75	-1	2	1	attentive	At this moment	2	3	11	230	VLPFC	555.958674736321	0	1759.43031043794	-0.195860537112068	5.03244197372675e-05	25.0011253485606	1573.01622971286	0	957.86072775191	0.228558076656375	0.000121639981848826	25.1714257155662	1256.38816295158	0	5	1	0	0	0	0
274.428991294246	2.51874421929199	reward_vlpfc	276.947735513538	54	2	9	10	0	0	0	0	250	250	250	750	2000	0	BLOCKED	0.75	1	3	-1	distressed	At this moment	4	3	11	230	VLPFC	540.708357471973	0	744.117798964027	0.528885204201733	-8.20049556480021e-05	25.0109682249656	1488.92009987516	0	976.635037190482	-0.09987142642281	0.000249508250293313	29.6605373235918	1106.90853189854	1	6	1	0	0	0	0
277.931795830727	2.51879816964271	reward_vlpfc	280.450594000369	55	2	9	10	0	0	0	0	250	250	250	750	2000	0	BLOCKED	0.75	1	7	1	upset	At this moment	5	3	11	230	VLPFC	473.000672444701	0.574282147315855	n/a	n/a	n/a	n/a	1351.36070381232	0.295926210607225	n/a	n/a	n/a	n/a	1144.58406113537	2	7	1	0	0	0	0
281.434881755296	2.53521741107852	reward_vlpfc	283.970099166375	56	2	9	10	0	0	0	0	250	250	250	750	2000	0	BLOCKED	0.75	1	6	1	irritable	At this moment	2	3	11	230	VLPFC	940.550244167447	0	1542.24594021165	-0.27352884577636	0.000113107294077255	24.7389887128654	1471.74282147316	0	752.378616900233	0.690764624454505	-0.000180944363218595	28.2034023381325	1183.5334358186	0	8	1	0	0	0	0
284.970922526244	6.02154417175427	panas_none	290.992466697998	57	5	10	10	n/a	n/a	n/a	n/a	n/a	n/a	n/a	n/a	2000	0	BLOCKED	n/a	n/a	+	0	enthusiastic	At this moment	3	3	11	230	NONE	n/a	0	-1095.59236329048	1.46377863779367	-0.000222902177928194	41.5077659389264	982.062421972534	0.173712528823982	381.329238952522	1.91640381231574	-0.00100023695828539	39.5627626733906	1219.92744186047	4	1	0	1	0	1	1
291.976531599209	6.02160870060698	panas_none	297.998140299816	58	5	10	10	n/a	n/a	n/a	n/a	n/a	n/a	n/a	n/a	2000	0	BLOCKED	n/a	n/a	+	0	jittery	At this moment	4	3	11	230	NONE	n/a	0	5596.12301305968	-4.97589147558784	0.00126989784706898	35.0158355776647	815.196004993758	0.276710222905457	n/a	n/a	n/a	n/a	710.383634431456	2	2	0	1	0	1	1
298.982316627882	6.02193874978275	panas_none	305.004255377665	59	5	10	10	n/a	n/a	n/a	n/a	n/a	n/a	n/a	n/a	2000	0	BLOCKED	n/a	n/a	+	0	proud	At this moment	4	3	11	230	NONE	n/a	0	701.673258118242	0.307139683539281	-0.000121188206060247	16.9676883851853	803.113607990012	0.282859338970023	n/a	n/a	n/a	n/a	885.355841371919	3	3	0	1	0	1	1
305.987991287544	5.07075852424276	panas_none	311.058749811787	60	5	10	10	n/a	n/a	n/a	n/a	n/a	n/a	n/a	n/a	2000	0	BLOCKED	n/a	n/a	+	0	distressed	At this moment	5	3	11	230	NONE	n/a	0	3880.32521190415	-2.58523768355118	0.000535196675523169	20.2986267129816	839.840199750312	0.496541122213682	n/a	n/a	n/a	n/a	923.003053435114	1	4	0	1	0	1	1
312.042815065615	2.5187703129202	punish_vlpfc	314.561585378535	61	4	11	10	0	0	0	0	250	250	250	750	2000	0	BLOCKED	0.25	-1	2	1	upset	At this moment	1	3	11	230	VLPFC	307.529670048505	0	5898.436666905	-4.15179876847516	0.000981767950885446	28.0985259589821	1561.31460674157	0.289777094542659	n/a	n/a	n/a	n/a	1367.16774891775	1	1	0	0	1	0	0
315.54574125484	2.51876960768925	punish_vlpfc	318.064510862529	62	4	11	10	0	0	0	0	250	250	250	750	2000	0	BLOCKED	0.25	-1	10	-1	hostile	At this moment	4	3	11	230	VLPFC	384.418082043529	0	2878.51324615833	-1.53358232344971	0.000399024139344482	24.8634802905114	1438.60799001248	0.363566487317448	n/a	n/a	n/a	n/a	1186.90821256039	2	2	0	0	1	0	0
319.048594452422	2.51878053880483	punish_vlpfc	321.567374991227	63	4	11	10	0	0	0	0	250	250	250	750	2000	0	BLOCKED	0.25	1	3	-1	attentive	At this moment	3	3	11	230	VLPFC	356.586402889341	0	1217.44825783462	0.0804627990695364	3.28876232029189e-05	25.6748563531346	1533.71410736579	0.424289008455035	n/a	n/a	n/a	n/a	1363.70894526035	1	3	0	0	1	0	0
322.551435661037	2.51868215876073	punish_vlpfc	325.070117819797	64	4	11	10	0	0	0	0	250	250	250	750	2000	0	BLOCKED	0.25	-1	6	-1	irritable	At this moment	4	3	11	230	VLPFC	389.833215851337	0	3528.4401910355	-2.21950650004655	0.000586240711044887	25.1775864737187	1483.45193508115	0.391237509607994	n/a	n/a	n/a	n/a	1369.8345959596	2	4	0	0	1	0	0
326.054194357354	2.51875479779017	punish_vlpfc	328.572949155144	65	4	11	10	0	0	0	0	250	250	250	750	2000	0	BLOCKED	0.25	1	1	-1	active	At this moment	1	3	11	230	VLPFC	1208.39996318519	0.752808988764045	n/a	n/a	n/a	n/a	1661.72222222222	0	1124.44336867747	0.745541345470425	-0.000277799972358872	33.6696393922357	1518.51191391238	2	5	0	0	1	0	0
329.557212579526	2.51860564095159	punish_vlpfc	332.075818220478	66	4	11	10	0	0	0	0	250	250	250	750	2000	0	BLOCKED	0.25	1	1	-1	excited	At this moment	1	3	11	230	VLPFC	422.943566173315	0.757802746566791	n/a	n/a	n/a	n/a	1636.45360824742	0.465795541890853	n/a	n/a	n/a	n/a	1549.01726618705	3	6	0	0	1	0	0
333.059937424649	2.51873364078995	punish_vlpfc	335.578671065439	67	4	11	10	0	0	0	0	250	250	250	750	2000	0	BLOCKED	0.25	1	3	-1	enthusiastic	At this moment	5	3	11	230	VLPFC	1307.16224350035	0.794007490636704	n/a	n/a	n/a	n/a	1623.99393939394	0.956187548039969	n/a	n/a	n/a	n/a	1308.52631578947	5	7	0	0	1	0	0
336.562768759996	2.51881897402183	punish_vlpfc	339.081587734018	68	4	11	10	0	0	0	0	250	250	250	750	2000	0	BLOCKED	0.25	-1	1	1	ashamed	At this moment	4	3	11	230	VLPFC	1274.37277432904	0.881398252184769	n/a	n/a	n/a	n/a	1593.2	0.230591852421214	1321.66047791555	0.379362793025799	-0.000140245863895685	37.2305524236181	1533.12787212787	7	8	0	0	1	0	0
340.082315887388	6.02154346652327	panas_none	346.103859353911	69	5	12	10	n/a	n/a	n/a	n/a	n/a	n/a	n/a	n/a	2000	0	BLOCKED	n/a	n/a	+	0	active	At this moment	2	3	11	230	NONE	n/a	0.380774032459426	n/a	n/a	n/a	n/a	985.104838709677	0.0637970791698693	1206.16167444297	-0.180748565203561	0.000103092025130091	80.3365863987735	1143.27011494253	15	1	0	1	0	0	1
347.08821939525	6.02132378635929	panas_none	353.109543181609	70	5	12	10	n/a	n/a	n/a	n/a	n/a	n/a	n/a	n/a	2000	0	BLOCKED	n/a	n/a	+	0	alert	At this moment	3	3	11	230	NONE	n/a	0.534332084893883	n/a	n/a	n/a	n/a	902.506702412869	0	1089.05260150136	0.287676534867153	-0.000187705208715588	27.1933986843685	1166.27286702537	9	2	0	1	0	0	1
354.110341153074	6.02161363723877	panas_none	360.131954790313	71	5	12	10	n/a	n/a	n/a	n/a	n/a	n/a	n/a	n/a	2000	0	BLOCKED	n/a	n/a	+	0	attentive	At this moment	2	3	11	230	NONE	n/a	0.570536828963795	n/a	n/a	n/a	n/a	941.895348837209	0	925.978341399561	0.0721830627317769	-5.20469693482988e-05	28.3470164386211	942.170637970792	11	3	0	1	0	0	1
361.11620199433	7.82294060419127	panas_none	368.939142598521	72	5	12	10	n/a	n/a	n/a	n/a	n/a	n/a	n/a	n/a	2000	0	BLOCKED	n/a	n/a	+	0	strong	At this moment	3	3	11	230	NONE	n/a	0.428214731585518	n/a	n/a	n/a	n/a	1308.9672489083	0.738662567255957	n/a	n/a	n/a	n/a	1301.35882352941	43	4	0	1	0	0	1
369.939983589221	2.51857390544939	punish_vlpfc	372.45855749467	73	4	13	10	0	0	0	0	250	250	250	750	2000	0	BLOCKED	0.25	1	3	-1	hostile	At this moment	4	3	11	230	VLPFC	791.845810614526	1	n/a	n/a	n/a	n/a	n/a	0.906994619523444	n/a	n/a	n/a	n/a	1065.72727272727	24	1	0	0	1	0	0
373.442832908016	2.51859259413555	punish_vlpfc	375.961425502151	74	4	13	10	0	0	0	0	250	250	250	750	2000	0	BLOCKED	0.25	-1	3	1	enthusiastic	At this moment	3	3	11	230	VLPFC	440.410079054534	0	5345.77448670953	-3.62554182424686	0.00081572203017537	36.9766652889664	1372.75530586767	0.675634127594158	n/a	n/a	n/a	n/a	1445.07819905213	10	2	0	0	1	0	0
376.945587372936	2.51870789977909	punish_vlpfc	379.464295272715	75	4	13	10	0	0	0	0	250	250	250	750	2000	0	BLOCKED	0.25	-1	6	-1	jittery	At this moment	4	3	11	230	VLPFC	340.216880392283	0.0848938826466916	1900.74244061582	-0.529235434593855	0.000153057118972702	27.9286813956856	1466.04092769441	0.675634127594158	n/a	n/a	n/a	n/a	1402.28672985782	8	3	0	0	1	0	0
380.448352768973	2.51878759114066	punish_vlpfc	382.967140360113	76	4	13	10	0	0	0	0	250	250	250	750	2000	0	BLOCKED	0.25	1	0	-1	attentive	At this moment	2	3	11	230	VLPFC	324.076206099242	0.702871410736579	n/a	n/a	n/a	n/a	1385.91596638655	0.748654880860876	n/a	n/a	n/a	n/a	1209.69113149847	10	4	0	0	1	0	0
383.951269437552	2.51875162423772	punish_vlpfc	386.470021061789	77	4	13	10	0	0	0	0	250	250	250	750	2000	0	BLOCKED	0.25	1	10	1	afraid	At this moment	1	3	11	230	VLPFC	857.19025889039	1	n/a	n/a	n/a	n/a	n/a	1	n/a	n/a	n/a	n/a	n/a	29	5	0	0	1	0	0
387.454167417441	2.51867757474633	punish_vlpfc	389.972844992187	78	4	13	10	0	0	0	0	250	250	250	750	2000	0	BLOCKED	0.25	-1	9	-1	proud	At this moment	3	3	11	230	VLPFC	473.582842521369	1	n/a	n/a	n/a	n/a	n/a	1	n/a	n/a	n/a	n/a	n/a	18	6	0	0	1	0	0
390.973640495338	2.51885141475503	punish_vlpfc	393.492491910093	79	4	13	10	0	0	0	0	250	250	250	750	2000	0	BLOCKED	0.25	-1	9	-1	distressed	At this moment	2	3	11	230	VLPFC	556.91920248419	1	n/a	n/a	n/a	n/a	n/a	1	n/a	n/a	n/a	n/a	n/a	9	7	0	0	1	0	0
394.493288823709	2.51858730488271	punish_vlpfc	397.011876128592	80	4	13	10	0	0	0	0	250	250	250	750	2000	0	BLOCKED	0.25	1	2	-1	active	At this moment	4	3	11	230	VLPFC	323.932691123337	1	n/a	n/a	n/a	n/a	n/a	1	n/a	n/a	n/a	n/a	n/a	3	8	0	0	1	0	0
398.012881438646	6.02134741166981	panas_none	404.034228850316	81	5	14	10	n/a	n/a	n/a	n/a	n/a	n/a	n/a	n/a	2000	0	BLOCKED	n/a	n/a	+	0	inspired	At this moment	2	3	11	230	NONE	n/a	0.987515605493134	n/a	n/a	n/a	n/a	951.5	0.581860107609531	n/a	n/a	n/a	n/a	1021.10477941176	19	1	0	1	0	0	1
405.018643899851	6.02131250262636	panas_none	411.039956402477	82	5	14	10	n/a	n/a	n/a	n/a	n/a	n/a	n/a	n/a	2000	0	BLOCKED	n/a	n/a	+	0	determined	At this moment	3	3	11	230	NONE	n/a	0.751560549313358	n/a	n/a	n/a	n/a	617.180904522613	0.100691775557264	894.172251159333	0.351351338603054	-0.000153913604162889	33.5583459742217	1064.15555555556	26	2	0	1	0	0	1
412.024037876666	6.02153817727788	panas_none	418.045576053943	83	5	14	10	n/a	n/a	n/a	n/a	n/a	n/a	n/a	n/a	2000	0	BLOCKED	n/a	n/a	+	0	interested	At this moment	3	3	11	230	NONE	n/a	1	n/a	n/a	n/a	n/a	n/a	0.769408147578786	n/a	n/a	n/a	n/a	730.46	54	3	0	1	0	0	1
419.029818321321	11.3091746266969	panas_none	430.338992948018	84	5	14	10	n/a	n/a	n/a	n/a	n/a	n/a	n/a	n/a	2000	0	BLOCKED	n/a	n/a	+	0	ashamed	At this moment	5	3	11	230	NONE	n/a	0.972534332084894	n/a	n/a	n/a	n/a	1007.81818181818	0.654112221368178	n/a	n/a	n/a	n/a	1002.67111111111	52	4	0	1	0	0	1
431.339742611006	2.5187692550719	reward_rtpj	433.858511866078	85	1	15	10	750	250	250	250	0	0	0	0	2000	0	BLOCKED	0.75	1	6	1	strong	At this moment	4	3	11	230	RTPJ	606.423053227365	0.700374531835206	n/a	n/a	n/a	n/a	1097.93333333333	0.877017678708686	n/a	n/a	n/a	n/a	900.775	5	1	1	0	0	0	0
434.842602508303	2.51873293555531	reward_rtpj	437.361335443858	86	1	15	10	750	250	250	250	0	0	0	0	2000	0	BLOCKED	0.75	1	7	1	distressed	At this moment	2	3	11	230	RTPJ	424.569834139198	0.540574282147316	n/a	n/a	n/a	n/a	953.926630434783	0.955418908531899	n/a	n/a	n/a	n/a	759.948275862069	7	2	1	0	0	0	0
438.345335816219	2.51874986116212	reward_rtpj	440.864085677382	87	1	15	10	750	250	250	250	0	0	0	0	2000	0	BLOCKED	0.75	-1	4	1	enthusiastic	At this moment	1	3	11	230	RTPJ	473.666060052812	0.682896379525593	n/a	n/a	n/a	n/a	1099.90551181102	0.893159108378171	n/a	n/a	n/a	n/a	942.654676258993	18	3	1	0	0	0	0
441.848224275466	2.51892934303356	reward_rtpj	444.3671536185	88	1	15	10	750	250	250	250	0	0	0	0	2000	0	BLOCKED	0.75	1	8	1	upset	At this moment	4	3	11	230	RTPJ	973.76814256981	0.772784019975031	n/a	n/a	n/a	n/a	1145.74725274725	0.686395080707148	n/a	n/a	n/a	n/a	903.610294117647	13	4	1	0	0	0	0
445.351175500475	2.51869837912915	reward_rtpj	447.869873879604	89	1	15	10	750	250	250	250	0	0	0	0	2000	0	BLOCKED	0.75	-1	9	-1	irritable	At this moment	3	3	11	230	RTPJ	606.712551496923	1	n/a	n/a	n/a	n/a	n/a	1	n/a	n/a	n/a	n/a	n/a	7	5	1	0	0	0	0
448.85389787728	2.51878970683737	reward_rtpj	451.372687584117	90	1	15	10	750	250	250	250	0	0	0	0	2000	0	BLOCKED	0.75	-1	9	-1	alert	At this moment	4	3	11	230	RTPJ	306.618861254305	0.750312109862672	n/a	n/a	n/a	n/a	1194.035	0.88162951575711	n/a	n/a	n/a	n/a	904.642857142857	8	6	1	0	0	0	0
452.356751780093	2.51887856623154	reward_rtpj	454.875630346324	91	1	15	10	750	250	250	250	0	0	0	0	2000	0	BLOCKED	0.75	-1	2	1	attentive	At this moment	1	3	11	230	RTPJ	823.614807222039	1	n/a	n/a	n/a	n/a	n/a	1	n/a	n/a	n/a	n/a	n/a	12	7	1	0	0	0	0
455.859676558852	2.51872306229177	reward_rtpj	458.378399621144	92	1	15	10	750	250	250	250	0	0	0	0	2000	0	BLOCKED	0.75	1	7	1	distressed	At this moment	1	3	11	230	RTPJ	873.892651505768	1	n/a	n/a	n/a	n/a	n/a	1	n/a	n/a	n/a	n/a	n/a	10	8	1	0	0	0	0
459.384357431974	6.01638080623377	panas_none	465.400738238208	93	5	16	10	n/a	n/a	n/a	n/a	n/a	n/a	n/a	n/a	2000	0	BLOCKED	n/a	n/a	+	0	ashamed	At this moment	2	3	11	230	NONE	n/a	0.747815230961298	n/a	n/a	n/a	n/a	911.752475247525	0.988470407378939	n/a	n/a	n/a	n/a	782.8	44	1	0	1	0	1	0
466.384894467127	6.02152583568915	panas_none	472.406420302816	94	5	16	10	n/a	n/a	n/a	n/a	n/a	n/a	n/a	n/a	2000	0	BLOCKED	n/a	n/a	+	0	scared	At this moment	2	3	11	230	NONE	n/a	0.34207240948814	n/a	n/a	n/a	n/a	887.800759013283	0.617986164488855	n/a	n/a	n/a	n/a	1077.07444668008	5	2	0	1	0	1	0
473.390517292142	6.02161293200402	panas_none	479.412130224146	95	5	16	10	n/a	n/a	n/a	n/a	n/a	n/a	n/a	n/a	2000	0	BLOCKED	n/a	n/a	+	0	afraid	At this moment	1	3	11	230	NONE	n/a	0.910112359550562	n/a	n/a	n/a	n/a	460.777777777778	0.417371252882398	n/a	n/a	n/a	n/a	753.511873350923	7	3	0	1	0	1	0
480.412924316831	12.6436092993468	panas_none	493.056533616178	96	5	16	10	n/a	n/a	n/a	n/a	n/a	n/a	n/a	n/a	2000	0	BLOCKED	n/a	n/a	+	0	interested	At this moment	2	3	11	230	NONE	n/a	0.374531835205993	n/a	n/a	n/a	n/a	1184.90419161677	0.683320522674866	n/a	n/a	n/a	n/a	1242.61893203884	8	4	0	1	0	1	0
