onset	duration	trial_type	offset	trial	block	blockCntr	frequency	amplitude_1	amplitude_2	amplitude_3	amplitude_4	amplitude_5	amplitude_6	amplitude_7	amplitude_8	transition	sham	mode	rewardFraction	guess	outcome	correct	word	when	answer	runNr	scanNr	subjectNr	target	reactionTime	outcomeEyeClosed	outcomeParms_1	outcomeParms_2	outcomeParms_3	outcomeSigma	outcomePupilArea	guessEyeClosed	guessParms_1	guessParms_2	guessParms_3	guessSigma	guessPupilArea	nrBlinks	trialInBlock	isReward	isPanas	isPunish	beforePanasReward	beforePanasVLPFC
20.4187583592199	2.51145810155943	punish_rtpj	22.9302164607793	1	3	1	10	750	250	250	250	0	0	0	0	2000	0	BLOCKED	0.25	1	0	-1	attentive	At this moment	5	2	7	230	RTPJ	819.129170879722	0.670411985018727	n/a	n/a	n/a	n/a	2738.70833333333	0	2124.86425457754	0.263476993405211	8.51061875723737e-05	24.4725198525083	2421.8378170638	2	1	0	0	1	0	0
23.93096224498	2.51869837912917	punish_rtpj	26.4496606241092	2	3	1	10	750	250	250	250	0	0	0	0	2000	0	BLOCKED	0.25	1	8	1	scared	At this moment	5	2	7	230	RTPJ	540.519354954362	0	15319.7689440705	-11.7895690189058	0.00267532070929404	30.5019117375912	2477.43945068664	0	1866.5020311673	0.84385915409974	-0.000223437751050715	21.1319891903396	2390.8285933897	0	2	0	0	1	0	0
27.4373634712435	2.51523286274076	punish_rtpj	29.9525963339843	3	3	1	10	750	250	250	250	0	0	0	0	2000	0	BLOCKED	0.25	-1	8	-1	inspired	At this moment	4	2	7	230	RTPJ	436.896959420294	0	2023.15164074763	0.441360180908758	-6.29960571941624e-05	21.7760372647013	2668.55555555556	0	1553.92495001747	0.764559869662804	-5.92139008412009e-05	38.7663801225921	2152.97694081476	0	3	0	0	1	0	0
30.9367275271229	2.51870331576094	punish_rtpj	33.4554308428839	4	3	1	10	750	250	250	250	0	0	0	0	2000	0	BLOCKED	0.25	-1	6	-1	jittery	At this moment	1	2	7	230	RTPJ	357.48804365471	0	3674.78494974632	-1.10890863050942	0.000290140992625054	22.5929722432725	2640.76029962547	0	1497.28985611379	0.949158436620094	-0.000153971931112384	30.1358160220158	2170.99538816295	0	4	0	0	1	0	0
34.4396195125356	2.51865042326227	punish_rtpj	36.9582699357979	5	3	1	10	750	250	250	250	0	0	0	0	2000	0	BLOCKED	0.25	-1	10	-1	alert	At this moment	4	2	7	230	RTPJ	322.823711775243	0	1860.68638181374	0.55834017261882	-8.76468461912019e-05	23.6461149860191	2641.20474406991	0.23674096848578	1772.45162347863	0.630703377695369	-6.8699239862372e-05	38.9759054873564	2267.93554884189	1	5	0	0	1	0	0
37.9423316634558	2.51889901800081	punish_rtpj	40.4612306814566	6	3	1	10	750	250	250	250	0	0	0	0	2000	0	BLOCKED	0.25	1	1	-1	strong	At this moment	3	2	7	230	RTPJ	1191.24304772541	0.759051186017478	n/a	n/a	n/a	n/a	2538.48186528497	0	1766.89807927904	0.863003532778311	-0.000240151485277741	21.8403689484925	2292.60568793236	1	6	0	0	1	0	0
41.4452924091145	2.51866276484729	punish_rtpj	43.9639551739618	7	3	1	10	750	250	250	250	0	0	0	0	2000	0	BLOCKED	0.25	-1	10	-1	scared	At this moment	2	2	7	230	RTPJ	323.122378073633	0	3214.97167101763	-0.688303974920507	0.000203581582646813	31.1817820427848	2679.44444444444	0.23674096848578	1651.83314038016	0.697694416286243	-5.03374753466819e-05	54.8817321920368	2225.06445115811	1	7	0	0	1	0	0
44.9481311494149	2.51867827997729	punish_rtpj	47.4668094293922	8	3	1	10	750	250	250	250	0	0	0	0	2000	0	BLOCKED	0.25	1	9	1	proud	At this moment	1	2	7	230	RTPJ	323.031050361693	0	7741.65464263439	-4.77996123737168	0.00108998360605328	46.5622792189444	2569.52184769039	0.263643351268255	n/a	n/a	n/a	n/a	2313.38517745303	1	8	0	0	1	0	0
48.4693063078523	6.01988440521061	panas_none	54.4891907130629	9	5	2	10	n/a	n/a	n/a	n/a	n/a	n/a	n/a	n/a	2000	0	BLOCKED	n/a	n/a	+	0	ashamed	At this moment	4	2	7	230	NONE	n/a	0	1949.74212831798	-0.554643407572582	0.00021261551925688	24.0633911754266	1733.60049937578	0.176787086856264	436.118967167775	2.79807949934026	-0.00123988430281004	116.920751241479	1866.6629318394	1	1	0	1	0	0	0
55.4734065341987	6.02144508648291	panas_none	61.4948516206816	10	5	2	10	n/a	n/a	n/a	n/a	n/a	n/a	n/a	n/a	2000	0	BLOCKED	n/a	n/a	+	0	attentive	At this moment	3	2	7	230	NONE	n/a	0	6650.28371033709	-4.17089898203428	0.000899789921028207	18.4382487224459	1907.4606741573	0	2504.66177870817	-0.176054131089103	-4.14146650685039e-05	46.9926360847144	2319.58416602613	1	2	0	1	0	0	0
62.4791950890385	6.02137033175304	panas_none	68.5005654207915	11	5	2	10	n/a	n/a	n/a	n/a	n/a	n/a	n/a	n/a	2000	0	BLOCKED	n/a	n/a	+	0	upset	At this moment	4	2	7	230	NONE	n/a	0	1067.7828001877	0.733366520406903	-0.000150878633625347	25.8949362104027	1934.4606741573	0	1617.87664952451	0.199776077866289	7.58681266864492e-07	29.9015018824572	1788.36587240584	1	3	0	1	0	0	0
69.5012826430425	13.0940703632422	panas_none	82.5953530062847	12	5	2	10	n/a	n/a	n/a	n/a	n/a	n/a	n/a	n/a	2000	0	BLOCKED	n/a	n/a	+	0	guilty	At this moment	1	2	7	230	NONE	n/a	0.00374531835205993	140.293327429429	2.00840624659335	-0.000419308902147265	27.6826043590268	2485.9649122807	0.0945426594926979	1858.95542117031	0.413870755322428	-8.10896785842038e-05	25.1532647584799	2125.40577249576	5	4	0	1	0	0	0
83.5961234736554	2.51871001547575	reward_vlpfc	86.1148334891312	13	2	3	10	0	0	0	0	250	250	250	750	2000	0	BLOCKED	0.75	1	7	1	proud	At this moment	4	2	7	230	VLPFC	540.116314124316	0.607990012484395	n/a	n/a	n/a	n/a	2709.63375796178	0	1228.2722006273	1.33422714867444	-0.000226023409961988	36.6833001774065	2168.30976172175	2	1	1	0	0	0	0
87.0989957125336	2.51869837912544	reward_vlpfc	89.617694091659	14	2	3	10	0	0	0	0	250	250	250	750	2000	0	BLOCKED	0.75	1	9	1	afraid	At this moment	2	2	7	230	VLPFC	407.612852312624	0.433208489388265	n/a	n/a	n/a	n/a	2428.19603524229	0	1742.29494110363	0.933568901691387	-0.00019362322051555	38.8070490243574	2368.90392006149	1	2	1	0	0	0	0
90.6018608990796	2.51874633498862	reward_vlpfc	93.1206072340682	15	2	3	10	0	0	0	0	250	250	250	750	2000	0	BLOCKED	0.75	-1	0	1	distressed	At this moment	5	2	7	230	VLPFC	389.722846843302	0	14146.3818669669	-10.5326289108631	0.00233673782953482	24.0297505209649	2425.34456928839	0	1772.315908235	0.738222533366638	-0.000139388277178058	23.3141098212075	2279.51345119139	0	3	1	0	0	0	0
94.1045790444836	2.51922448316589	reward_vlpfc	96.6238035276495	16	2	3	10	0	0	0	0	250	250	250	750	2000	0	BLOCKED	0.75	-1	4	1	enthusiastic	At this moment	5	2	7	230	VLPFC	807.543598406017	0	12548.7370438415	-9.25049893697374	0.00207486036510481	27.964398095359	2363.40449438202	0	1379.11024926419	1.11884467212011	-0.000265735972097552	26.1989834490446	2100.46502690238	0	4	1	0	0	0	0
97.6243670090437	2.51854111210257	reward_vlpfc	100.142908121146	17	2	3	10	0	0	0	0	250	250	250	750	2000	0	BLOCKED	0.75	1	4	-1	scared	At this moment	3	2	7	230	VLPFC	456.47670385614	0	3666.20124751399	-1.16343842898463	0.000282887598166447	25.7416502086097	2485.68289637953	0	1229.43149393201	1.01586651501726	-0.000144873755964515	32.1892747542165	1967.79861644889	0	5	1	0	0	0	0
101.127140867881	2.51864936541021	reward_vlpfc	103.645790233292	18	2	3	10	0	0	0	0	250	250	250	750	2000	0	BLOCKED	0.75	1	8	1	determined	At this moment	3	2	7	230	VLPFC	406.281724479049	0	10772.2003526062	-8.00514943181237	0.00185390561435519	38.4635644026131	2234.84893882647	0.237509607993851	1477.80113861814	0.613551517979505	1.13950953418189e-05	59.326318098688	2015.87903225806	1	6	1	0	0	0	0
104.629805415556	2.51899634019286	reward_vlpfc	107.148801755749	19	2	3	10	0	0	0	0	250	250	250	750	2000	0	BLOCKED	0.75	-1	4	1	jittery	At this moment	3	2	7	230	VLPFC	473.844131454825	0	15641.9377634388	-12.0700553661292	0.0027174865143531	26.1976185560718	2389.51186017478	0	1958.03292397658	0.310580336639683	6.38507672336238e-05	40.0993631682589	2277.31129900077	0	7	1	0	0	0	0
108.133088805445	2.51836198284477	reward_vlpfc	110.651450788289	20	2	3	10	0	0	0	0	250	250	250	750	2000	0	BLOCKED	0.75	-1	8	-1	attentive	At this moment	3	2	7	230	VLPFC	572.70655489713	0	3144.15565121085	-0.598355600287855	0.000147211948097378	23.8591244479924	2544.41573033708	0.393543428132206	n/a	n/a	n/a	n/a	1991.8948035488	2	8	1	0	0	0	0
111.635595380861	6.02153852989524	panas_none	117.657133910757	21	5	4	10	n/a	n/a	n/a	n/a	n/a	n/a	n/a	n/a	2000	0	BLOCKED	n/a	n/a	+	0	guilty	At this moment	2	2	7	230	NONE	n/a	0	-1588.74165259844	2.52909560432234	-0.000475851079962968	24.0943553543116	1599.8177278402	0.319754035357417	n/a	n/a	n/a	n/a	1817.78983050847	2	1	0	1	0	1	1
118.641328574888	6.02150221037866	panas_none	124.662830785267	22	5	4	10	n/a	n/a	n/a	n/a	n/a	n/a	n/a	n/a	2000	0	BLOCKED	n/a	n/a	+	0	proud	At this moment	4	2	7	230	NONE	n/a	0	2610.82843914512	-1.2059947211217	0.000370973277472082	20.4524453580802	1734.00998751561	0	1322.9641039795	0.0348756205971218	8.51911236851644e-05	25.1036269744906	1426.25211375865	1	2	0	1	0	1	1
125.647147454757	6.02131920234113	panas_none	131.668466657098	23	5	4	10	n/a	n/a	n/a	n/a	n/a	n/a	n/a	n/a	2000	0	BLOCKED	n/a	n/a	+	0	afraid	At this moment	1	2	7	230	NONE	n/a	0	3990.19460738722	-2.39129675209915	0.000584822315533571	18.5726235013228	1579.05368289638	0	1289.55142828404	0.601822027295471	-0.000244354583578298	60.6582691527016	1589.96310530361	1	3	0	1	0	1	1
132.652684593931	11.0756147606745	panas_none	143.728299354605	24	5	4	10	n/a	n/a	n/a	n/a	n/a	n/a	n/a	n/a	2000	0	BLOCKED	n/a	n/a	+	0	strong	At this moment	1	2	7	230	NONE	n/a	0	2655.88655722185	-0.640733875115594	0.00018651832670981	25.7410765070054	2142.45443196005	0.296694850115296	n/a	n/a	n/a	n/a	1753.32349726776	4	4	0	1	0	1	1
144.712463693708	2.51868709539622	punish_vlpfc	147.231150789104	25	4	5	10	0	0	0	0	250	250	250	750	2000	0	BLOCKED	0.25	-1	6	-1	alert	At this moment	2	2	7	230	VLPFC	790.53196099773	0	1220.776849297	0.940851271648466	-0.000178313217384163	22.5010608179494	2400.50811485643	0	929.437149898686	1.01559293291393	-7.87685860027153e-05	45.6115966442212	1725.61029976941	0	1	0	0	1	0	0
148.215314070355	2.51882003187018	punish_vlpfc	150.734134102225	26	4	5	10	0	0	0	0	250	250	250	750	2000	0	BLOCKED	0.25	1	6	1	ashamed	At this moment	3	2	7	230	VLPFC	639.868036746979	0.583021223470662	n/a	n/a	n/a	n/a	2340.49101796407	0	1205.71525044461	1.23083175617127	-0.000327121752605226	23.0387566021072	1969.58724058417	2	2	0	0	1	0	0
151.718049493976	2.51875091900675	punish_vlpfc	154.236800412983	27	4	5	10	0	0	0	0	250	250	250	750	2000	0	BLOCKED	0.25	-1	8	-1	distressed	At this moment	3	2	7	230	VLPFC	792.060201536864	0.484394506866417	n/a	n/a	n/a	n/a	2346.23244552058	0	1242.00477431924	1.21154981160447	-0.000330180026133134	23.2600034838846	1985.77401998463	1	3	0	0	1	0	0
155.220987672169	2.51868462707847	punish_vlpfc	157.739672299247	28	4	5	10	0	0	0	0	250	250	250	750	2000	0	BLOCKED	0.25	-1	1	1	enthusiastic	At this moment	4	2	7	230	VLPFC	356.458050433546	0	6788.38406407962	-4.27219687022012	0.00101519661669918	31.9479928919177	2347.79650436954	0.508839354342813	n/a	n/a	n/a	n/a	2125.41471048513	3	4	0	0	1	0	0
158.723829586018	2.51872729369254	punish_vlpfc	161.24255687971	29	4	5	10	0	0	0	0	250	250	250	750	2000	0	BLOCKED	0.25	-1	8	-1	upset	At this moment	3	2	7	230	VLPFC	839.953299451619	0	1233.853872031	0.998381051835059	-0.000187065615200879	24.6162668231646	2495.91885143571	0	1286.75358990038	1.06921251425514	-0.00022910230146474	24.8960260969668	1997.53727901614	0	5	0	0	1	0	0
162.226581935238	2.51879464346914	punish_vlpfc	164.745376578707	30	4	5	10	0	0	0	0	250	250	250	750	2000	0	BLOCKED	0.25	1	4	-1	irritable	At this moment	1	2	7	230	VLPFC	323.570553831756	0	4628.55285474745	-1.98166227771338	0.00046130176906989	23.3695697732506	2525.54307116105	0	1546.66748304992	0.388233201458933	0.00018697145112815	54.5894289967396	2039.32129131437	0	6	0	0	1	0	0
165.729495782878	2.51884506765381	punish_vlpfc	168.248340850532	31	4	5	10	0	0	0	0	250	250	250	750	2000	0	BLOCKED	0.25	-1	7	-1	distressed	At this moment	3	2	7	230	VLPFC	473.854709956795	0.68789013732834	n/a	n/a	n/a	n/a	2512.664	0	1439.47292996932	0.893294415646336	-0.000158619174065176	26.9865128949266	2061.40814757879	1	7	0	0	1	0	0
169.232351448778	2.51870437360927	punish_vlpfc	171.751055822387	32	4	5	10	0	0	0	0	250	250	250	750	2000	0	BLOCKED	0.25	-1	10	-1	inspired	At this moment	3	2	7	230	VLPFC	706.921265289187	0.656679151061174	n/a	n/a	n/a	n/a	2593.02181818182	0	1645.77383505517	0.851360026212227	-0.000165547234380628	23.9511224320222	2226.44965411222	2	8	0	0	1	0	0
172.751798785657	6.02161434247344	panas_none	178.77341312813	33	5	6	10	n/a	n/a	n/a	n/a	n/a	n/a	n/a	n/a	2000	0	BLOCKED	n/a	n/a	+	0	ashamed	At this moment	5	2	7	230	NONE	n/a	0	154.564188162429	0.901460321160081	-2.24181674982412e-05	18.0555010448413	1947.69787765293	0	2649.87699593856	-0.744286905094555	8.65948679081586e-05	104.119117368358	2093.50653343582	1	1	0	1	0	0	1
179.75758381433	6.0215579238087	panas_none	185.779141738139	34	5	6	10	n/a	n/a	n/a	n/a	n/a	n/a	n/a	n/a	2000	0	BLOCKED	n/a	n/a	+	0	guilty	At this moment	3	2	7	230	NONE	n/a	0	4221.1838578037	-2.34029193218528	0.000545368864834801	20.9448098857084	1740.0861423221	0	1791.33331075345	0.491486102759315	-0.000321914070388117	24.4282448622321	1931.75787855496	1	2	0	1	0	0	1
186.779875885993	6.02168662888184	panas_none	192.801562514875	35	5	6	10	n/a	n/a	n/a	n/a	n/a	n/a	n/a	n/a	2000	0	BLOCKED	n/a	n/a	+	0	distressed	At this moment	2	2	7	230	NONE	n/a	0	4225.34496169747	-2.28611438518965	0.000519362878397253	20.9920307649333	1742.46816479401	0	2008.85401693333	-0.647456225955911	0.000361120263317214	24.1833064806055	1769.98693312836	0	3	0	1	0	0	1
193.785623537302	10.3250310919694	panas_none	204.110654629271	36	5	6	10	n/a	n/a	n/a	n/a	n/a	n/a	n/a	n/a	2000	0	BLOCKED	n/a	n/a	+	0	inspired	At this moment	4	2	7	230	NONE	n/a	0	2138.57145868142	-0.178889898045855	0.000114955739044742	22.8718314459471	2275.76903870162	0.325134511913912	n/a	n/a	n/a	n/a	1919.31093394077	3	4	0	1	0	0	1
205.111499851372	2.51908590481804	punish_vlpfc	207.63058575619	37	4	7	10	0	0	0	0	250	250	250	750	2000	0	BLOCKED	0.25	1	1	-1	attentive	At this moment	2	2	7	230	VLPFC	857.467062957585	0	3549.26173021429	-1.13751359944217	0.000277005633250243	23.9090669072292	2397.03245942572	0	922.775036432983	1.50688958763472	-0.00035998914780058	34.5674607619527	1900.00076863951	0	1	0	0	1	0	0
208.614238801159	2.51896248899399	punish_vlpfc	211.133201290153	38	4	7	10	0	0	0	0	250	250	250	750	2000	0	BLOCKED	0.25	-1	8	-1	guilty	At this moment	1	2	7	230	VLPFC	307.655906807631	0.529338327091136	n/a	n/a	n/a	n/a	2403.40053050398	0.252882398155265	n/a	n/a	n/a	n/a	1958.08950617284	2	2	0	0	1	0	0
212.117228813998	2.51865359681099	punish_vlpfc	214.635882410809	39	4	7	10	0	0	0	0	250	250	250	750	2000	0	BLOCKED	0.25	1	8	1	upset	At this moment	2	2	7	230	VLPFC	407.682670406997	0	16203.9605451228	-12.800073022135	0.00288102944476338	30.3273110110853	2161.10112359551	0	1447.02410678662	0.988874809981794	-0.000250249633397557	21.3674556829166	2071.36740968486	0	3	0	0	1	0	0
215.620084479895	2.51870754716171	punish_vlpfc	218.138792027056	40	4	7	10	0	0	0	0	250	250	250	750	2000	0	BLOCKED	0.25	1	4	-1	ashamed	At this moment	1	2	7	230	VLPFC	389.447453245521	0.660424469413233	n/a	n/a	n/a	n/a	2518.55147058824	0.266717909300538	n/a	n/a	n/a	n/a	2132.80083857442	2	4	0	0	1	0	0
219.122787815403	2.518924053777	punish_vlpfc	221.64171186918	41	4	7	10	0	0	0	0	250	250	250	750	2000	0	BLOCKED	0.25	-1	9	-1	strong	At this moment	2	2	7	230	VLPFC	406.951696101576	0	3475.57205454503	-1.14370942683606	0.000328622119359287	27.5910034687753	2541.60799001248	0	1649.35544842359	0.801363853003105	-0.000166892793010481	22.4493981519322	2186.4473481937	0	5	0	0	1	0	0
222.625673101097	2.51877524955572	punish_vlpfc	225.144448350653	42	4	7	10	0	0	0	0	250	250	250	750	2000	0	BLOCKED	0.25	1	10	1	excited	At this moment	3	2	7	230	VLPFC	1273.79624611139	0	5356.62125616075	-2.65720809343252	0.000620965055459045	38.1298289644756	2548.19600499376	0	1956.80525383312	0.473404744077314	-5.71043034203139e-05	48.7094917360846	2310.29976940815	2	6	0	0	1	0	0
226.128558739409	2.51869273725899	punish_vlpfc	228.647251476668	43	4	7	10	0	0	0	0	250	250	250	750	2000	0	BLOCKED	0.25	-1	8	-1	enthusiastic	At this moment	4	2	7	230	VLPFC	741.895547192544	0	2787.97553272088	-0.39455773931439	0.000141480498769359	26.0541215731806	2590.91260923845	0	1600.24871615455	0.898333503785785	-0.000209312583488552	16.5656595298796	2182.8670253651	0	7	0	0	1	0	0
229.647997260872	2.51877454432099	punish_vlpfc	232.166771805193	44	4	7	10	0	0	0	0	250	250	250	750	2000	0	BLOCKED	0.25	-1	10	-1	scared	At this moment	4	2	7	230	VLPFC	307.766628429294	0	1580.33165658286	0.776366074638846	-0.000129614618993511	25.5643004243437	2633.0074906367	0.241352805534204	1551.00302919157	0.838801482932385	-0.00015009335306112	29.1974435003786	2163.18642350557	1	8	0	0	1	0	0
233.150899824787	6.02151525719091	panas_none	239.172415081978	45	5	8	10	n/a	n/a	n/a	n/a	n/a	n/a	n/a	n/a	2000	0	BLOCKED	n/a	n/a	+	0	upset	At this moment	5	2	7	230	NONE	n/a	0	-773.795659952733	1.87365129364637	-0.00029519925158787	24.1312922252339	1843.53308364544	0	2372.18636442861	-1.17165926718648	0.000549107914478279	173.525467063477	1852.13604919293	8	1	0	1	0	0	1
240.156593173128	6.02161751602219	panas_none	246.17821068915	46	5	8	10	n/a	n/a	n/a	n/a	n/a	n/a	n/a	n/a	2000	0	BLOCKED	n/a	n/a	+	0	strong	At this moment	3	2	7	230	NONE	n/a	0	4842.31616944868	-2.43448368027012	0.000529577249276845	23.6925659363916	2093.46566791511	0	2021.66298379479	0.425482565155849	-0.00011119431936762	37.4365008315008	2288.44504227517	1	2	0	1	0	0	1
247.162290400259	6.02156991277263	panas_none	253.183860313032	47	5	8	10	n/a	n/a	n/a	n/a	n/a	n/a	n/a	n/a	2000	0	BLOCKED	n/a	n/a	+	0	interested	At this moment	4	2	7	230	NONE	n/a	0	2878.41153428065	-1.0203208800752	0.000226429540961049	26.6991078287322	1746.34082397004	0	1991.30008504045	0.0188776333837142	-6.0089436972606e-05	25.3162119863588	1955.68639508071	0	3	0	1	0	0	1
254.184532752972	9.25760126885771	panas_none	263.44213402183	48	5	8	10	n/a	n/a	n/a	n/a	n/a	n/a	n/a	n/a	2000	0	BLOCKED	n/a	n/a	+	0	nervous	At this moment	1	2	7	230	NONE	n/a	0.414481897627965	n/a	n/a	n/a	n/a	2462.08528784648	0	2000.07484409074	-0.0306209754571728	0.00019972144156144	28.7275245116864	2145.65334358186	1	4	0	1	0	0	1
264.426210912004	2.51873716695604	reward_rtpj	266.94494807896	49	1	9	10	750	250	250	250	0	0	0	0	2000	0	BLOCKED	0.75	-1	3	1	enthusiastic	At this moment	3	2	7	230	RTPJ	356.703471615911	0	11565.3486564481	-8.42472451633767	0.00190316013169934	29.9557679751082	2352.89513108614	0	1043.84356382723	1.61740982695245	-0.000463565100418807	30.6333403626498	2018.66487317448	0	1	1	0	0	0	0
267.94608315194	2.51848363558952	reward_rtpj	270.46456678753	50	1	9	10	750	250	250	250	0	0	0	0	2000	0	BLOCKED	0.75	-1	6	-1	distressed	At this moment	5	2	7	230	RTPJ	439.983765527606	0	3025.50652542011	-0.570296977146765	0.000157281246154263	28.7274279359765	2528.13233458177	0	1363.41338402686	0.746311789228234	-4.29331296913679e-05	46.6287819777108	1962.6856264412	0	2	1	0	0	0	0
271.448757572882	2.51864936541392	reward_rtpj	273.967406938296	51	1	9	10	750	250	250	250	0	0	0	0	2000	0	BLOCKED	0.75	1	4	-1	afraid	At this moment	4	2	7	230	RTPJ	439.727060612291	0	1877.7600002171	0.333166105973316	-2.80991641140021e-05	23.3191337723542	2452.31460674157	0	1233.33696509535	1.22310004541097	-0.000370904209303739	21.4513942382431	1952.29592621061	0	3	1	0	0	0	0
274.95146619764	2.51875409255547	reward_rtpj	277.470220290195	52	1	9	10	750	250	250	250	0	0	0	0	2000	0	BLOCKED	0.75	-1	2	1	guilty	At this moment	4	2	7	230	RTPJ	1141.79455778375	0	18368.2671596441	-14.6648517802432	0.00326687253878578	37.1540249475575	2122.41947565543	0	1259.24257511264	1.28471331732093	-0.000357666451433947	23.746793248509	2041.94696387394	0	4	1	0	0	0	0
278.454417775262	2.51864689709623	reward_rtpj	280.973064672358	53	1	9	10	750	250	250	250	0	0	0	0	2000	0	BLOCKED	0.75	1	9	1	interested	At this moment	1	2	7	230	RTPJ	390.212278749794	0	16946.5853752645	-13.2001510577422	0.00291600432886908	28.0618816082698	2202.27965043695	0	1431.31759540691	0.578130397506206	5.74109642324807e-05	42.381115018294	1972.35434281322	1	5	1	0	0	0	0
281.957210322782	2.51882038448383	reward_rtpj	284.476030707266	54	1	9	10	750	250	250	250	0	0	0	0	2000	0	BLOCKED	0.75	1	6	1	upset	At this moment	4	2	7	230	RTPJ	1007.04175439104	0	12326.8459784395	-9.60491932799137	0.00223856081125009	27.0858400026428	2129.24719101124	0	1195.75359424598	0.321498336976337	0.000255832371038651	54.4633677664796	1689.60491929285	0	6	1	0	0	0	0
285.460066693913	2.51867228549349	reward_rtpj	287.978738979407	55	1	9	10	750	250	250	250	0	0	0	0	2000	0	BLOCKED	0.75	-1	0	1	determined	At this moment	3	2	7	230	RTPJ	574.902298744768	0	4870.58377571895	-2.3613490294973	0.000524529785625268	37.4339764891148	2253.04993757803	0	1276.07022676312	0.608561699309085	3.49194947144128e-05	52.1778748058161	1824.55342044581	0	7	1	0	0	0	0
288.962828211162	2.51881509523838	reward_rtpj	291.481643306401	56	1	9	10	750	250	250	250	0	0	0	0	2000	0	BLOCKED	0.75	-1	4	1	hostile	At this moment	4	2	7	230	RTPJ	908.022416546941	0	9724.46058279142	-6.91052732209524	0.00154993576509065	47.2139710702552	2126.39575530587	0	808.48601389192	1.53349361018859	-0.000390771615067371	25.8747511431681	1776.25211375865	0	8	1	0	0	0	0
292.482431051984	6.02154522961007	panas_none	298.503976281594	57	5	10	10	n/a	n/a	n/a	n/a	n/a	n/a	n/a	n/a	2000	0	BLOCKED	n/a	n/a	+	0	guilty	At this moment	1	2	7	230	NONE	n/a	0	1395.1629251096	-0.295890168544889	0.000171151885194566	16.8961627330439	1537.60424469413	0.148347425057648	665.821788859902	2.34017236809105	-0.00116043754416593	91.8259640710098	1727.90072202166	3	1	0	1	0	1	0
299.488110295665	6.02158683837206	panas_none	305.509697134037	58	5	10	10	n/a	n/a	n/a	n/a	n/a	n/a	n/a	n/a	2000	0	BLOCKED	n/a	n/a	+	0	afraid	At this moment	2	2	7	230	NONE	n/a	0	7270.33012719692	-4.80129812224003	0.00104318111654907	36.0716250975506	1844.94007490637	0	1952.1938344634	-0.0268825239499939	5.23984567586751e-05	22.6655188241457	1974.8478093774	1	2	0	1	0	1	0
306.493900613587	6.02137738408521	panas_none	312.515277997673	59	5	10	10	n/a	n/a	n/a	n/a	n/a	n/a	n/a	n/a	2000	0	BLOCKED	n/a	n/a	+	0	upset	At this moment	3	2	7	230	NONE	n/a	0	4742.94831381537	-3.25031359372877	0.000807020370960503	23.5680148990422	1519.44943820225	0	1548.75027748273	0.182393606793306	-0.000214403000260735	48.9214141963977	1518.99846272098	1	3	0	1	0	1	0
313.499874997396	13.7609139259271	panas_none	327.260788923323	60	5	10	10	n/a	n/a	n/a	n/a	n/a	n/a	n/a	n/a	2000	0	BLOCKED	n/a	n/a	+	0	interested	At this moment	4	2	7	230	NONE	n/a	0	2269.74413566254	-0.268030011280437	8.1194641612326e-05	29.1800051128133	2071.37578027466	0.286702536510377	n/a	n/a	n/a	n/a	1618.37068965517	4	4	0	1	0	1	0
328.261529770896	2.51870507884024	reward_rtpj	330.780234849736	61	1	11	10	750	250	250	250	0	0	0	0	2000	0	BLOCKED	0.75	1	0	-1	hostile	At this moment	2	2	7	230	RTPJ	506.547209549695	0	2831.19003410353	-0.722562964594827	0.000205899987912876	22.7321940222368	2233.17103620474	0	788.685225498139	1.14433486555282	-0.000168310567140641	32.6414186094074	1618.46810146042	0	1	1	0	0	0	0
331.764225348834	2.5189064229466	reward_rtpj	334.283131771781	62	1	11	10	750	250	250	250	0	0	0	0	2000	0	BLOCKED	0.75	-1	4	1	strong	At this moment	3	2	7	230	RTPJ	323.551159918308	0	6110.10561846123	-3.36503918519294	0.000708199920503173	43.612557975514	2203.14481897628	0	1348.13082044469	0.80468573383464	-0.00013106996760015	24.4908238246037	1918.54342813221	0	2	1	0	0	0	0
335.283770007908	2.51880733767149	reward_rtpj	337.80257734558	63	1	11	10	750	250	250	250	0	0	0	0	2000	0	BLOCKED	0.75	1	9	1	attentive	At this moment	2	2	7	230	RTPJ	323.665407709777	0	7310.20070258495	-4.70304105338997	0.00105915777999068	43.8214672964669	2160.82896379526	0.285933897002306	n/a	n/a	n/a	n/a	1919.59095801938	1	3	1	0	0	0	0
338.786686323866	2.5186994369775	reward_rtpj	341.305385760844	64	1	11	10	750	250	250	250	0	0	0	0	2000	0	BLOCKED	0.75	1	9	1	determined	At this moment	1	2	7	230	RTPJ	489.999263033271	0	11524.6238180116	-8.70236856689638	0.00198033972607494	41.7680227630228	2077.45692883895	0	1442.20566724949	0.44977529467721	5.95635543560061e-05	51.2515761510891	1875.12913143736	0	4	1	0	0	0	0
342.289521538001	2.51875444517287	reward_rtpj	344.808275983173	65	1	11	10	750	250	250	250	0	0	0	0	2000	0	BLOCKED	0.75	-1	4	1	distressed	At this moment	3	2	7	230	RTPJ	523.43543113023	0	7949.92536367508	-5.71480899964042	0.00136617688597315	38.7101792092557	2046.4631710362	0.272867025365104	n/a	n/a	n/a	n/a	1721.46723044397	1	5	1	0	0	0	0
345.792392013796	2.51871283640713	reward_rtpj	348.311104850203	66	1	11	10	750	250	250	250	0	0	0	0	2000	0	BLOCKED	0.75	-1	2	1	guilty	At this moment	3	2	7	230	RTPJ	806.923698343337	0	9623.07659704078	-7.06085746053612	0.00163870486630466	47.6077195672965	2107.88389513109	0	1162.88012524747	1.08340736080497	-0.000265408274270773	27.2422508428584	1855.39508070715	0	6	1	0	0	0	0
349.295221233446	2.51871918350827	reward_rtpj	351.813940416954	67	1	11	10	750	250	250	250	0	0	0	0	2000	0	BLOCKED	0.75	1	1	-1	jittery	At this moment	1	2	7	230	RTPJ	1107.06569706276	0	3422.79710893091	-1.23813508171192	0.000304306291979689	29.7944390586743	2181.85268414482	0	1016.84389905543	0.936825895455128	-0.000128409959507704	36.5984278384242	1703.49884704074	0	7	1	0	0	0	0
352.798093119711	2.51867052241039	reward_rtpj	355.316763642121	68	1	11	10	750	250	250	250	0	0	0	0	2000	0	BLOCKED	0.75	1	8	1	hostile	At this moment	1	2	7	230	RTPJ	323.686212085187	0	13154.4625357386	-10.27666562953	0.00234438840041145	32.7680911265106	2026.43196004994	0	1193.61884443107	0.933302260574642	-0.000167142642850128	30.2698047186687	1841.36279784781	0	8	1	0	0	0	0
356.317508368474	6.02168592365086	panas_none	362.339194292124	69	5	12	10	n/a	n/a	n/a	n/a	n/a	n/a	n/a	n/a	2000	0	BLOCKED	n/a	n/a	+	0	scared	At this moment	2	2	7	230	NONE	n/a	0	-1565.95868310709	3.09131336625572	-0.000720091753870333	30.9034024084938	1711.9138576779	0.492697924673328	n/a	n/a	n/a	n/a	1561.35454545455	2	1	0	1	0	1	0
363.323327248346	6.02141123528031	panas_none	369.344738483626	70	5	12	10	n/a	n/a	n/a	n/a	n/a	n/a	n/a	n/a	2000	0	BLOCKED	n/a	n/a	+	0	determined	At this moment	4	2	7	230	NONE	n/a	0	4532.83555563495	-2.57820036121182	0.000679955733307154	31.9292436997956	2154.14606741573	0	2145.65631808342	-0.0280295308137405	4.05485155257986e-05	20.1656891210972	2156.60107609531	1	2	0	1	0	1	0
370.328984629795	6.02159776948395	panas_none	376.350582399279	71	5	12	10	n/a	n/a	n/a	n/a	n/a	n/a	n/a	n/a	2000	0	BLOCKED	n/a	n/a	+	0	enthusiastic	At this moment	4	2	7	230	NONE	n/a	0	2818.4776683358	-1.14873953330476	0.000302386242920217	17.35968239654	1755.3670411985	0	1442.38859709786	0.100328274027296	8.65805292591371e-05	24.1770613649968	1602.48424289008	1	3	0	1	0	1	0
377.334582771644	13.9947523590922	panas_none	391.329335130736	72	5	12	10	n/a	n/a	n/a	n/a	n/a	n/a	n/a	n/a	2000	0	BLOCKED	n/a	n/a	+	0	hostile	At this moment	3	2	7	230	NONE	n/a	0	1635.52719110361	0.224406199799361	3.37944485335172e-05	29.0069493636194	2259.734082397	0.522674865488086	n/a	n/a	n/a	n/a	1831.99033816425	7	4	0	1	0	1	0
392.313390158683	2.51878794375438	punish_rtpj	394.832178102437	73	3	13	10	750	250	250	250	0	0	0	0	2000	0	BLOCKED	0.25	-1	3	1	guilty	At this moment	2	2	7	230	RTPJ	506.94848728925	0	8000.89490265026	-5.07132935893183	0.00116168051733848	42.1261706087497	2536.79900124844	0.230591852421214	1361.16512662255	0.889479225548283	-3.60187591401912e-05	37.4149421839021	2065.05894105894	1	1	0	0	1	0	0
395.816299069691	2.51874562975763	punish_rtpj	398.335044699449	74	3	13	10	750	250	250	250	0	0	0	0	2000	0	BLOCKED	0.25	-1	2	1	active	At this moment	2	2	7	230	RTPJ	374.109334431589	0	4919.1720687133	-2.27916120122784	0.000551072607426814	43.0618560992749	2592.87016229713	0.423520368946964	n/a	n/a	n/a	n/a	2230.088	2	2	0	0	1	0	0
399.319179771371	2.51868497969213	punish_rtpj	401.837864751063	75	3	13	10	750	250	250	250	0	0	0	0	2000	0	BLOCKED	0.25	1	2	-1	distressed	At this moment	4	2	7	230	RTPJ	406.736599951982	0	1501.28943023091	0.960775858855104	-0.000222491797132591	31.8974598859208	2527.83395755306	0	1544.39039433102	0.955103854338436	-0.00022184341437813	32.9353088701665	2164.32282859339	0	3	0	0	1	0	0
402.821982192155	2.51882990513371	punish_rtpj	405.340812097289	76	3	13	10	750	250	250	250	0	0	0	0	2000	0	BLOCKED	0.25	1	2	-1	jittery	At this moment	1	2	7	230	RTPJ	373.881191462278	0	2326.96404255858	-0.215581067564403	0.000128675410448516	27.0951009008253	2449.03870162297	0	1006.55432992762	1.27688740915591	-0.000287786683026673	33.1006087880781	1843.70791698693	0	4	0	0	1	0	0
406.324875940651	2.51867898520828	punish_rtpj	408.843554925859	77	3	13	10	750	250	250	250	0	0	0	0	2000	0	BLOCKED	0.25	1	3	-1	excited	At this moment	4	2	7	230	RTPJ	824.705450501293	0.374531835205993	n/a	n/a	n/a	n/a	2523.1497005988	0	1521.5159346042	0.888518135813476	-0.000201701556101845	20.4540614701908	2103.02613374327	1	5	0	0	1	0	0
409.827724554215	2.51869097417591	punish_rtpj	412.346415528391	78	3	13	10	750	250	250	250	0	0	0	0	2000	0	BLOCKED	0.25	-1	6	-1	nervous	At this moment	1	2	7	230	RTPJ	690.308437302709	0.759051186017478	n/a	n/a	n/a	n/a	2548.9585492228	0.460415065334358	n/a	n/a	n/a	n/a	2213.7207977208	3	6	0	0	1	0	0
413.33060455066	2.5187685498372	punish_rtpj	415.849373100497	79	3	13	10	750	250	250	250	0	0	0	0	2000	0	BLOCKED	0.25	1	4	-1	hostile	At this moment	5	2	7	230	RTPJ	890.427198592573	0.769038701622971	n/a	n/a	n/a	n/a	2666.59459459459	0	1364.9110817077	1.51374869998694	-0.000459330537593368	30.0684837941442	2255.06302843966	1	7	0	0	1	0	0
416.833364657443	2.51874950854108	punish_rtpj	419.352114165984	80	3	13	10	750	250	250	250	0	0	0	0	2000	0	BLOCKED	0.25	1	0	-1	proud	At this moment	2	2	7	230	RTPJ	1489.64840947092	0	2835.072126171	-0.36193095274059	0.000129975904338843	34.6167327369407	2655.47940074906	0	1416.7673191224	1.19895387394898	-0.000248611298594685	38.7709898870245	2223.36587240584	0	8	0	0	1	0	0
420.352930473518	6.02151772550866	panas_none	426.374448199026	81	5	14	10	n/a	n/a	n/a	n/a	n/a	n/a	n/a	n/a	2000	0	BLOCKED	n/a	n/a	+	0	attentive	At this moment	3	2	7	230	NONE	n/a	0	3719.17978255669	-2.13098167802775	0.000557928369188228	17.7448375191869	1734.32709113608	0.362797847809377	n/a	n/a	n/a	n/a	2283.72255729795	2	1	0	1	0	0	0
427.375264859177	6.02163761517033	panas_none	433.396902474347	82	5	14	10	n/a	n/a	n/a	n/a	n/a	n/a	n/a	n/a	2000	0	BLOCKED	n/a	n/a	+	0	upset	At this moment	5	2	7	230	NONE	n/a	0	-1043.73109454701	2.57803434453923	-0.000537372043353338	28.8700314660832	1975.59800249688	0	1980.00843643938	-0.212649941198342	-1.91261404335921e-05	23.5494151636021	1783.92928516526	0	2	0	1	0	0	0
434.380954681355	6.02161927910521	panas_none	440.402573960461	83	5	14	10	n/a	n/a	n/a	n/a	n/a	n/a	n/a	n/a	2000	0	BLOCKED	n/a	n/a	+	0	guilty	At this moment	3	2	7	230	NONE	n/a	0	4910.31209169488	-2.94245218873861	0.000672849618437688	24.4549793242919	1734.52184769039	0	1912.10030750645	-0.524643337146131	0.000326543524801739	36.3392174159546	1749.00538047656	0	3	0	1	0	0	0
441.386682233516	5.93821556936206	panas_none	447.324897802878	84	5	14	10	n/a	n/a	n/a	n/a	n/a	n/a	n/a	n/a	2000	0	BLOCKED	n/a	n/a	+	0	proud	At this moment	5	2	7	230	NONE	n/a	0.0212234706616729	1693.42868184762	0.801373111399127	-0.000150549958301216	21.2239875064268	2703.61224489796	0	2093.83253615308	0.037314073558812	0.000222045520887505	30.1449389130892	2316.65949269792	2	4	0	1	0	0	0
448.308879839178	2.5191476127319	reward_vlpfc	450.82802745191	85	2	15	10	0	0	0	0	250	250	250	750	2000	0	BLOCKED	0.75	1	9	1	attentive	At this moment	1	2	7	230	VLPFC	339.956649310887	0	11320.0934804482	-7.84665383883952	0.00172263802748102	33.1929892817396	2511.4556803995	0	1256.49161889246	1.45915341199727	-0.000383370359928544	22.4783543285605	2165.58339738663	0	1	1	0	0	0	0
451.81179474467	2.51873681434245	reward_vlpfc	454.330531559013	86	2	15	10	0	0	0	0	250	250	250	750	2000	0	BLOCKED	0.75	1	2	-1	afraid	At this moment	2	2	7	230	VLPFC	356.58851859346	0	2077.89550595661	0.402883321863927	-7.88833839281577e-05	21.2085350327751	2571.2684144819	0	1552.91700176099	0.630550231423584	2.85133850136878e-05	63.1240958334132	2113.89469638739	0	2	1	0	0	0	0
455.314652173653	2.51871671519427	reward_vlpfc	457.833368888848	87	2	15	10	0	0	0	0	250	250	250	750	2000	0	BLOCKED	0.75	-1	3	1	active	At this moment	3	2	7	230	VLPFC	307.634397190064	0	11747.9809797361	-8.92406728744637	0.00203664479652984	35.649143434055	2092.12734082397	0.259800153727902	n/a	n/a	n/a	n/a	1895.02388369678	1	3	1	0	0	0	0
458.817443663321	2.51865747559441	reward_vlpfc	461.336101138916	88	2	15	10	0	0	0	0	250	250	250	750	2000	0	BLOCKED	0.75	-1	2	1	irritable	At this moment	3	2	7	230	VLPFC	356.556783091277	0	2728.98872835863	-0.482892827589406	0.000147917617388788	25.6540389269672	2375.3645443196	0.293620292083013	n/a	n/a	n/a	n/a	2046.47442872688	1	4	1	0	0	0	0
462.320443902042	2.51858624703067	reward_vlpfc	464.839030149072	89	2	15	10	0	0	0	0	250	250	250	750	2000	0	BLOCKED	0.75	1	7	1	attentive	At this moment	2	2	7	230	VLPFC	423.09483871609	0	14916.1224340665	-11.3397321326093	0.00248879094314279	28.2155565587269	2171.74531835206	0	1378.21527163824	1.07499604048556	-0.000288712017708819	22.5968641475239	2042.84396617986	0	5	1	0	0	0	0
465.839846809223	2.51870437361305	reward_vlpfc	468.358551182836	90	2	15	10	0	0	0	0	250	250	250	750	2000	0	BLOCKED	0.75	1	6	1	hostile	At this moment	5	2	7	230	VLPFC	607.044011142105	0	3144.86060143576	-0.471996320299587	2.60164364707972e-05	26.7701430019741	2268.92009987516	0	1342.87576364919	0.810363571204642	-0.000105581571964926	26.8527471661215	1940.46579554189	0	6	1	0	0	0	0
469.34261784713	2.51869308987261	reward_vlpfc	471.861310937002	91	2	15	10	0	0	0	0	250	250	250	750	2000	0	BLOCKED	0.75	-1	7	-1	enthusiastic	At this moment	3	2	7	230	VLPFC	823.745980605483	0	4226.76053299157	-2.05944856243711	0.000513984217797235	22.290555042925	2195.29837702871	0.277478862413528	n/a	n/a	n/a	n/a	1649.58617021277	1	7	1	0	0	0	0
472.845690724876	2.51855592200161	reward_vlpfc	475.364246646877	92	2	15	10	0	0	0	0	250	250	250	750	2000	0	BLOCKED	0.75	-1	4	1	excited	At this moment	2	2	7	230	VLPFC	426.904156330973	0	15745.3113563704	-12.0688103276741	0.0026242816971948	24.8162586554023	2076.09488139825	0	1168.65435840004	1.11904755923714	-0.000234240404900195	23.4441130626436	1917.428132206	0	8	1	0	0	0	0
476.365074943379	6.02157661248748	panas_none	482.386651555866	93	5	16	10	n/a	n/a	n/a	n/a	n/a	n/a	n/a	n/a	2000	0	BLOCKED	n/a	n/a	+	0	interested	At this moment	4	2	7	230	NONE	n/a	0	898.974500473121	0.26964754826251	3.10930077459075e-05	20.2850222387282	1603.32958801498	0.0799385088393543	912.027546598877	1.80042263098115	-0.000848119091169725	114.91612082554	1748.48872180451	1	1	0	1	0	1	1
483.370691421293	6.02163585209098	panas_none	489.392327273384	94	5	16	10	n/a	n/a	n/a	n/a	n/a	n/a	n/a	n/a	2000	0	BLOCKED	n/a	n/a	+	0	irritable	At this moment	3	2	7	230	NONE	n/a	0	2540.56095116648	-1.11432122052021	0.000315858902788753	23.1625312442154	1610.95630461923	0	1646.97918974636	0.0397409046447576	-4.57836102639137e-05	27.5481119625718	1640.51191391238	5	2	0	1	0	1	1
490.39315874343	6.02158895407246	panas_none	496.414747697502	95	5	16	10	n/a	n/a	n/a	n/a	n/a	n/a	n/a	n/a	2000	0	BLOCKED	n/a	n/a	+	0	determined	At this moment	4	2	7	230	NONE	n/a	0.0399500624219725	2988.9739555057	-1.37343379528629	0.000306396746736479	24.047940309621	1472.28868660598	0	2448.74994830973	-1.02729465682787	0.000281033011530079	31.060491210781	1813.71329746349	1	3	0	1	0	1	1
497.398801314976	10.3420490764789	panas_none	507.740850391455	96	5	16	10	n/a	n/a	n/a	n/a	n/a	n/a	n/a	n/a	2000	0	BLOCKED	n/a	n/a	+	0	ashamed	At this moment	1	2	7	230	NONE	n/a	0	2536.37733661382	-0.650236810507	0.000216591867354558	20.4808352698673	2137.56803995006	0.30130668716372	n/a	n/a	n/a	n/a	1712.17601760176	5	4	0	1	0	1	1
