onset	duration	trial_type	offset	trial	block	blockCntr	frequency	amplitude_1	amplitude_2	amplitude_3	amplitude_4	amplitude_5	amplitude_6	amplitude_7	amplitude_8	transition	sham	mode	rewardFraction	guess	outcome	correct	word	when	answer	runNr	scanNr	subjectNr	target	reactionTime	outcomeEyeClosed	outcomeParms_1	outcomeParms_2	outcomeParms_3	outcomeSigma	outcomePupilArea	guessEyeClosed	guessParms_1	guessParms_2	guessParms_3	guessSigma	guessPupilArea	nrBlinks	trialInBlock	isReward	isPanas	isPunish	beforePanasReward	beforePanasVLPFC
20.3300340168476	2.55098325395584	reward_vlpfc	22.8810172708035	1	2	1	10	0	0	0	0	250	250	250	750	2000	0	BLOCKED	0.75	1	7	1	enthusiastic	At this moment	3	3	11	235	VLPFC	840.219877719879	0	7394.59051186792	-4.69200787048906	0.000992363202174474	33.8400163191597	1970.41697877653	0.00614911606456572	2326.65900338166	-0.0820751985528727	-8.08978486147661e-05	41.5062543032359	2188.03866976025	1	1	1	0	0	0	0
23.8699373505116	2.5471471376419	reward_vlpfc	26.4170844881535	2	2	1	10	0	0	0	0	250	250	250	750	2000	0	BLOCKED	0.75	1	1	-1	scared	At this moment	5	3	11	235	VLPFC	269.726344823837	0.374531835205993	n/a	n/a	n/a	n/a	1935.67265469062	0	1116.56501166914	1.0020001421414	-0.000355406000777533	36.4604963021963	1661.65949269792	1	2	1	0	0	0	0
27.4095282659531	2.5107676782608	reward_vlpfc	29.9202959442139	3	2	1	10	0	0	0	0	250	250	250	750	2000	0	BLOCKED	0.75	1	7	1	hostile	At this moment	3	3	11	235	VLPFC	252.847996473312	0.374531835205993	n/a	n/a	n/a	n/a	1620.96806387226	0	891.582327045346	1.03773680338498	-0.000321800852646796	27.5739196393441	1506.18524212145	1	3	1	0	0	0	0
30.9246969525814	2.53142396116257	reward_vlpfc	33.456120913744	4	2	1	10	0	0	0	0	250	250	250	750	2000	0	BLOCKED	0.75	1	7	1	inspired	At this moment	1	3	11	235	VLPFC	403.094774961472	0	5885.35933030461	-3.93921147670453	0.000865552592014772	27.7681448134244	1471.0961298377	0	549.380496693889	1.50849146236219	-0.000602034568346178	16.4164233047244	1326.90315142198	0	4	1	0	0	0	0
34.4624031319618	2.51321095871926	reward_vlpfc	36.9756140906811	5	2	1	10	0	0	0	0	250	250	250	750	2000	0	BLOCKED	0.75	1	8	1	strong	At this moment	4	3	11	235	VLPFC	439.830729722977	0	7238.15936291281	-5.04097859531165	0.00110851581876254	21.0020788969102	1599.54307116105	0.230591852421214	976.578185503767	1.42030858029958	-0.000599298525338723	50.1686995448869	1679.66833166833	1	5	1	0	0	0	0
37.9816152732372	2.56391018033028	reward_vlpfc	40.5455254535675	6	2	1	10	0	0	0	0	250	250	250	750	2000	0	BLOCKED	0.75	1	6	1	alert	At this moment	2	3	11	235	VLPFC	296.804482460022	0	4648.23386110525	-3.15624200961907	0.000782339806842455	37.0482796319248	1511.93882646692	0	908.828379183058	0.692646402577238	-0.000203717065944369	26.5388387098521	1322.2475019216	0	6	1	0	0	0	0
41.5522618420124	2.51281461763382	reward_vlpfc	44.0650764596462	7	2	1	10	0	0	0	0	250	250	250	750	2000	0	BLOCKED	0.75	1	7	1	ashamed	At this moment	1	3	11	235	VLPFC	388.645250320435	0	10815.1407251934	-8.58551198555641	0.00197056079329502	40.3408593133242	1580.85518102372	0	1033.6656393924	0.913454771246475	-0.000324446735712002	47.5958632505832	1529.9523443505	0	7	1	0	0	0	0
45.0739398317337	2.54396829819679	reward_vlpfc	47.6179081299305	8	2	1	10	0	0	0	0	250	250	250	750	2000	0	BLOCKED	0.75	1	1	-1	active	At this moment	5	3	11	235	VLPFC	288.140691041946	0.238451935081149	857.199983727356	0.789690310129646	-0.000231427967455535	14.3805521472014	1503.21803278689	0	953.426492879183	0.711966332280936	-0.000262157446575622	26.9624368488836	1334.5710991545	1	8	1	0	0	0	0
48.6408768730164	6.09915615320205	panas_none	54.7400330262184	9	5	2	10	n/a	n/a	n/a	n/a	n/a	n/a	n/a	n/a	2000	0	BLOCKED	n/a	n/a	+	0	proud	At this moment	3	3	11	235	NONE	n/a	0	2758.14989917142	-1.65013155308459	0.000421098850618172	17.9751976133275	1172.31335830212	0.342044581091468	n/a	n/a	n/a	n/a	1473.58528037383	5	1	0	1	0	1	1
55.7414519553185	6.02096023893356	panas_none	61.762412194252	10	5	2	10	n/a	n/a	n/a	n/a	n/a	n/a	n/a	n/a	2000	0	BLOCKED	n/a	n/a	+	0	strong	At this moment	4	3	11	235	NONE	n/a	0	4642.34953036107	-2.61036174959583	0.000548769858220243	24.3366590775234	1609.89513108614	0	1803.4081901022	-0.19896031540645	0.000122281895239245	24.7638334398414	1725.7432744043	6	2	0	1	0	1	1
62.7693076124191	6.04902958154679	panas_none	68.8183371939659	11	5	2	10	n/a	n/a	n/a	n/a	n/a	n/a	n/a	n/a	2000	0	BLOCKED	n/a	n/a	+	0	ashamed	At this moment	2	3	11	235	NONE	n/a	0	4624.97155265417	-3.58489469736548	0.000943827827080609	15.6461395442236	1309.22347066167	0.100691775557264	1562.03529799755	-0.610142771294689	0.000314254304732879	23.5198262025217	1303.72820512821	4	3	0	1	0	1	1
69.8107224373817	10.7836266694069	panas_none	80.5943491067886	12	5	2	10	n/a	n/a	n/a	n/a	n/a	n/a	n/a	n/a	2000	0	BLOCKED	n/a	n/a	+	0	inspired	At this moment	4	3	11	235	NONE	n/a	0	2502.33053344272	-0.474821761618628	0.000117301163652245	22.6023777100244	2028.76529338327	0.289777094542659	n/a	n/a	n/a	n/a	1867.96753246753	8	4	0	1	0	1	1
81.5851630907059	2.56207939434051	punish_vlpfc	84.1472424850464	13	4	3	10	0	0	0	0	250	250	250	750	2000	0	BLOCKED	0.25	1	1	-1	determined	At this moment	1	3	11	235	VLPFC	533.235000133514	0	7137.85682344867	-4.83809484619591	0.00115204638130462	30.3209546428247	2119.78776529338	0	1308.11774553373	0.956265434342117	-0.000288309668247753	18.7491600029622	1871.93466564181	0	1	0	0	1	0	0
85.1533374638557	2.51382204341888	punish_vlpfc	87.6671595072746	14	4	3	10	0	0	0	0	250	250	250	750	2000	0	BLOCKED	0.25	1	2	-1	enthusiastic	At this moment	2	3	11	235	VLPFC	459.20489859581	0.455680399500624	n/a	n/a	n/a	n/a	1907.3876146789	0.0499615680245965	1365.01416029016	0.308296420324011	6.60150966926649e-05	30.0129031140249	1699.61488673139	2	2	0	0	1	0	0
88.6750387260914	2.5448928592205	punish_vlpfc	91.2199315853119	15	4	3	10	0	0	0	0	250	250	250	750	2000	0	BLOCKED	0.25	1	3	-1	distressed	At this moment	5	3	11	235	VLPFC	98.9043850898743	0.374531835205993	n/a	n/a	n/a	n/a	2107.55089820359	0	1215.73545102686	0.733260950590591	-9.517105381821e-05	27.0166528327709	1756.44350499616	1	3	0	0	1	0	0
92.2257176718712	2.5636436021328	punish_vlpfc	94.789361274004	16	4	3	10	0	0	0	0	250	250	250	750	2000	0	BLOCKED	0.25	-1	9	-1	irritable	At this moment	5	3	11	235	VLPFC	283.152928829193	0.374531835205993	n/a	n/a	n/a	n/a	1817.14770459082	0	1293.29166507041	0.936439173270358	-0.000394241968739533	26.2451864746159	1749.02690238278	2	4	0	0	1	0	0
95.7954975087643	2.53003817772866	punish_vlpfc	98.3255356864929	17	4	3	10	0	0	0	0	250	250	250	750	2000	0	BLOCKED	0.25	-1	10	-1	afraid	At this moment	5	3	11	235	VLPFC	285.160022497177	0.34956304619226	n/a	n/a	n/a	n/a	1987.84836852207	0	936.624635006858	1.17499907104932	-0.000310046984321171	23.4195171676284	1677.98539584935	1	5	0	0	1	0	0
99.3140996234417	2.54759954452516	punish_vlpfc	101.861699167967	18	4	3	10	0	0	0	0	250	250	250	750	2000	0	BLOCKED	0.25	-1	2	1	strong	At this moment	4	3	11	235	VLPFC	727.617041349411	0.468164794007491	n/a	n/a	n/a	n/a	1661.50469483568	0	1046.517458694	1.08327173560159	-0.00041068706672643	39.6617539819793	1616.76479631053	1	6	0	0	1	0	0
102.869500106096	2.5451266438961	punish_vlpfc	105.414626749992	19	4	3	10	0	0	0	0	250	250	250	750	2000	0	BLOCKED	0.25	-1	10	-1	guilty	At this moment	3	3	11	235	VLPFC	249.393763780594	0	4673.65328947058	-2.94709264237021	0.000700931947052247	26.9742946118526	1613.39575530587	0	1056.64773542734	0.593907372231197	-0.000214275914856014	27.3751896704095	1376.26364335127	0	7	0	0	1	0	0
106.423928071976	2.51028635644913	punish_vlpfc	108.934214428425	20	4	3	10	0	0	0	0	250	250	250	750	2000	0	BLOCKED	0.25	1	7	1	hostile	At this moment	5	3	11	235	VLPFC	382.136299610138	0	6124.00498575768	-4.11912487748703	0.000893283278430391	22.627002660743	1457.48189762797	0	898.626315261276	0.727621043112028	-0.000174365281180714	22.3948920544816	1366.2282859339	1	8	0	0	1	0	0
109.923590441465	6.0496487762928	panas_none	115.973239217758	21	5	4	10	n/a	n/a	n/a	n/a	n/a	n/a	n/a	n/a	2000	0	BLOCKED	n/a	n/a	+	0	excited	At this moment	3	3	11	235	NONE	n/a	0.0911360799001248	2937.2951508889	-1.84497693110772	0.000494720678443205	17.6491577138265	1258.46703296703	0.538816295157571	n/a	n/a	n/a	n/a	1346.545	7	1	0	1	0	0	1
116.961729457855	6.05053102302551	panas_none	123.012260480881	22	5	4	10	n/a	n/a	n/a	n/a	n/a	n/a	n/a	n/a	2000	0	BLOCKED	n/a	n/a	+	0	interested	At this moment	4	3	11	235	NONE	n/a	0	47.5868498499556	2.01264859534441	-0.000510088215185192	20.4858800222529	1996.92509363296	0	1989.28371686039	0.153006095813465	-4.60048639591519e-05	30.4118416020798	2077.10684089162	5	2	0	1	0	0	1
124.001169982195	6.08358389663697	panas_none	130.084753878832	23	5	4	10	n/a	n/a	n/a	n/a	n/a	n/a	n/a	n/a	2000	0	BLOCKED	n/a	n/a	+	0	inspired	At this moment	3	3	11	235	NONE	n/a	0	-343.14991173026	1.48450444226415	-0.000287660557121788	29.08839889202	1490.24843945069	0.244427363566487	1972.87856615276	-0.64295339701869	0.00018499618252347	31.6843569330257	1529.3479145473	4	3	0	1	0	0	1
131.077790405273	5.16174807596207	panas_none	136.239538481236	24	5	4	10	n/a	n/a	n/a	n/a	n/a	n/a	n/a	n/a	2000	0	BLOCKED	n/a	n/a	+	0	strong	At this moment	1	3	11	235	NONE	n/a	0.181023720349563	2013.86248079767	-0.16971644868983	1.73427944926352e-05	19.6085652905529	1741.09451219512	0	1061.45352637195	0.696740933593721	-0.000149650616452227	30.9834149209134	1529.14219830899	5	4	0	1	0	0	1
137.232916693211	2.55983181595803	reward_vlpfc	139.792748509169	25	2	5	10	0	0	0	0	250	250	250	750	2000	0	BLOCKED	0.75	1	1	-1	attentive	At this moment	5	3	11	235	VLPFC	346.904255151749	0.445692883895131	n/a	n/a	n/a	n/a	1697.81306306306	0	720.10904159917	1.04910580348914	-0.000240492209030898	24.8079564904442	1412.68793235972	1	1	1	0	0	0	0
140.797023280859	2.53198285865784	reward_vlpfc	143.329006139517	26	2	5	10	0	0	0	0	250	250	250	750	2000	0	BLOCKED	0.75	1	10	1	upset	At this moment	3	3	11	235	VLPFC	538.823268890381	0	11550.2006926249	-8.67477019959921	0.00186680924284226	29.9612085362327	1652.52559300874	0	1050.30809889636	0.965018093031492	-0.000270668966527691	28.1031685038337	1636.19139123751	0	2	1	0	0	0	0
144.333263632774	2.53160943746565	reward_vlpfc	146.86487307024	27	2	5	10	0	0	0	0	250	250	250	750	2000	0	BLOCKED	0.75	1	9	1	jittery	At this moment	2	3	11	235	VLPFC	319.728442907333	0	6843.54135157308	-4.57298237765382	0.00097381271188758	28.3698890372375	1580.6304619226	0	1010.02727109903	0.269334011007514	0.000134996141967115	32.6898676103666	1355.53112990008	0	3	1	0	0	0	0
147.874213885307	2.54383959317207	reward_vlpfc	150.418053478479	28	2	5	10	0	0	0	0	250	250	250	750	2000	0	BLOCKED	0.75	1	7	1	proud	At this moment	4	3	11	235	VLPFC	382.697665452957	0	3132.15684836764	-1.73436097405373	0.000389099163349711	26.8494089881496	1226.734082397	0.734050730207533	n/a	n/a	n/a	n/a	1154.91040462428	4	4	1	0	0	0	0
151.426053292274	2.54454341626166	reward_vlpfc	153.970596708536	29	2	5	10	0	0	0	0	250	250	250	750	2000	0	BLOCKED	0.75	1	7	1	guilty	At this moment	3	3	11	235	VLPFC	602.218100070953	0	4820.31491715443	-3.47517984267396	0.000840443034192558	22.15700094555	1273.25842696629	0	841.891214675051	0.534667364233584	-0.000142083302014949	26.2733051110521	1174.07071483474	0	5	1	0	0	0	0
154.975245606422	2.51503151869775	reward_vlpfc	157.49027712512	30	2	5	10	0	0	0	0	250	250	250	750	2000	0	BLOCKED	0.75	1	0	-1	alert	At this moment	4	3	11	235	VLPFC	403.847259044647	0.49438202247191	n/a	n/a	n/a	n/a	1937.25432098765	0	1234.42669200629	-0.213513695345216	0.000360944885224021	32.058263510129	1365.25288239816	2	6	1	0	0	0	0
158.497853093624	2.5284870171547	reward_vlpfc	161.026340110779	31	2	5	10	0	0	0	0	250	250	250	750	2000	0	BLOCKED	0.75	1	7	1	jittery	At this moment	4	3	11	235	VLPFC	400.555582761765	0	12171.9196103231	-9.51452610168178	0.00214972558727105	35.9807368506685	1786.92883895131	0	1360.13489245312	0.659588046753096	-0.000152299333091554	26.3631861327736	1803.14681014604	1	7	1	0	0	0	0
162.020468690872	2.50891256213188	reward_vlpfc	164.529381253004	32	2	5	10	0	0	0	0	250	250	250	750	2000	0	BLOCKED	0.75	1	9	1	scared	At this moment	1	3	11	235	VLPFC	281.089769124985	0	13190.9138888408	-10.68927205441	0.00246766730366537	53.569204154318	1757.41573033708	0	1214.79341636974	0.932524933509333	-0.000333277743418048	48.3760914768068	1719.29208301307	1	8	1	0	0	0	0
165.518740693092	6.06622740054129	panas_none	171.584968093634	33	5	6	10	n/a	n/a	n/a	n/a	n/a	n/a	n/a	n/a	2000	0	BLOCKED	n/a	n/a	+	0	determined	At this moment	4	3	11	235	NONE	n/a	0.387016229712859	n/a	n/a	n/a	n/a	1266.816700611	0.295926210607225	n/a	n/a	n/a	n/a	1336.75	9	1	0	1	0	1	1
172.587672663212	6.05335230898856	panas_none	178.6410249722	34	5	6	10	n/a	n/a	n/a	n/a	n/a	n/a	n/a	n/a	2000	0	BLOCKED	n/a	n/a	+	0	enthusiastic	At this moment	4	3	11	235	NONE	n/a	0	3174.57695056222	-1.87747473156252	0.000442983807110842	19.791758047977	1208.97378277154	0.49423520368947	n/a	n/a	n/a	n/a	1286.12158054711	3	2	0	1	0	1	1
179.645308911562	6.03447427153588	panas_none	185.679783183098	35	5	6	10	n/a	n/a	n/a	n/a	n/a	n/a	n/a	n/a	2000	0	BLOCKED	n/a	n/a	+	0	inspired	At this moment	3	3	11	235	NONE	n/a	0	1957.02867500961	-0.540454513389014	0.000165187836008505	24.1125864142152	1559.12109862672	0.186010760953113	944.041769339486	1.09040215491575	-0.000448739903008437	15.9133264414619	1548.35788479698	9	3	0	1	0	1	1
186.6721070714	14.653528758049	panas_none	201.325635829449	36	5	6	10	n/a	n/a	n/a	n/a	n/a	n/a	n/a	n/a	2000	0	BLOCKED	n/a	n/a	+	0	interested	At this moment	4	3	11	235	NONE	n/a	0.0948813982521848	5713.35745634745	-3.16062799198103	0.000669563011673192	17.7751291184886	2045.60827586207	0.291314373558801	n/a	n/a	n/a	n/a	1880.74620390456	11	4	0	1	0	1	1
202.313304825544	2.5152515513897	punish_rtpj	204.828556376934	37	3	7	10	750	250	250	250	0	0	0	0	2000	0	BLOCKED	0.25	1	7	1	alert	At this moment	1	3	11	235	RTPJ	526.935503959656	0.290886392009988	n/a	n/a	n/a	n/a	1728.60915492958	0.346656418139892	n/a	n/a	n/a	n/a	1645.18470588235	2	1	0	0	1	0	0
205.818318152666	2.51318662834169	punish_rtpj	208.331504781008	38	3	7	10	750	250	250	250	0	0	0	0	2000	0	BLOCKED	0.25	1	2	-1	enthusiastic	At this moment	3	3	11	235	RTPJ	371.542990446091	0.448189762796504	n/a	n/a	n/a	n/a	1688.52941176471	0	926.309595740755	1.17361010318153	-0.000503549848962487	28.575533473352	1492.57801691007	1	2	0	0	1	0	0
209.318997821331	2.53200119447706	punish_rtpj	211.850999015808	39	3	7	10	750	250	250	250	0	0	0	0	2000	0	BLOCKED	0.25	1	4	-1	nervous	At this moment	1	3	11	235	RTPJ	303.367735624313	0	3101.65467398845	-1.47925269908123	0.000346299153719031	23.9424145391943	1540.21972534332	0	914.812663448386	0.841567005525547	-0.000325942802983887	20.8783918155063	1349.46118370484	0	3	0	0	1	0	0
212.857197663784	2.54679487347602	punish_rtpj	215.40399253726	40	3	7	10	750	250	250	250	0	0	0	0	2000	0	BLOCKED	0.25	1	1	-1	scared	At this moment	3	3	11	235	RTPJ	421.259469032288	0.596754057428215	n/a	n/a	n/a	n/a	1774.84829721362	0	1022.52942466246	0.828770599089037	-0.000262279773491758	29.4118045650663	1500.12836279785	1	4	0	0	1	0	0
216.389615298748	2.53388945698737	punish_rtpj	218.923504755735	41	3	7	10	750	250	250	250	0	0	0	0	2000	0	BLOCKED	0.25	-1	7	-1	inspired	At this moment	1	3	11	235	RTPJ	439.391369581223	0	6159.64035244711	-4.26072297142126	0.000995611619643958	33.3362258676634	1656.48189762797	0	1133.66062544335	0.513474161762931	-0.000109773256690719	34.856631546645	1475.22598001537	0	5	0	0	1	0	0
219.930642774343	2.52906072449684	punish_rtpj	222.45970349884	42	3	7	10	750	250	250	250	0	0	0	0	2000	0	BLOCKED	0.25	1	7	1	determined	At this moment	2	3	11	235	RTPJ	383.694512844086	0.397003745318352	n/a	n/a	n/a	n/a	1837.74327122153	0.275941583397387	n/a	n/a	n/a	n/a	1783.8110403397	2	6	0	0	1	0	0
223.449026972055	2.53010975909234	punish_rtpj	225.979136731148	43	3	7	10	750	250	250	250	0	0	0	0	2000	0	BLOCKED	0.25	-1	7	-1	proud	At this moment	3	3	11	235	RTPJ	286.4054646492	0.395755305867665	n/a	n/a	n/a	n/a	1934.90082644628	0	804.431288260883	1.58825391063081	-0.000566019167594565	19.0652592989436	1690.55726364335	1	7	0	0	1	0	0
226.971432410002	2.56053281784057	punish_rtpj	229.531965227842	44	3	7	10	750	250	250	250	0	0	0	0	2000	0	BLOCKED	0.25	1	3	-1	scared	At this moment	5	3	11	235	RTPJ	265.942768096924	0	1501.41761692721	-0.0473191107033071	3.17390339264634e-05	15.880829998461	1542.92259675406	0.23674096848578	1102.35198780943	0.778449530995811	-0.000326774283510877	33.7910292598263	1482.04934541793	2	8	0	0	1	0	0
230.524048984051	6.09715434837341	panas_none	236.621203332424	45	5	8	10	n/a	n/a	n/a	n/a	n/a	n/a	n/a	n/a	2000	0	BLOCKED	n/a	n/a	+	0	guilty	At this moment	2	3	11	235	NONE	n/a	0.153558052434457	-809.897682566407	1.63877263392209	-0.000294055391175948	16.2009964534037	1297.49410029499	0.23674096848578	1016.94403466425	0.360805905559567	-0.000254579235997347	19.3764594508221	1109.97079556898	5	1	0	1	0	0	0
237.630117833853	6.04668327021596	panas_none	243.676801104069	46	5	8	10	n/a	n/a	n/a	n/a	n/a	n/a	n/a	n/a	2000	0	BLOCKED	n/a	n/a	+	0	upset	At this moment	3	3	11	235	NONE	n/a	0	3797.88014097162	-2.57027841318244	0.000637132725018581	23.5095919061236	1243.52684144819	0	1559.50594943228	-0.38884088752702	0.000166001572004896	22.1425044613288	1372.13143735588	2	2	0	1	0	0	0
244.685438096285	6.08066881489754	panas_none	250.766106911182	47	5	8	10	n/a	n/a	n/a	n/a	n/a	n/a	n/a	n/a	2000	0	BLOCKED	n/a	n/a	+	0	excited	At this moment	3	3	11	235	NONE	n/a	0	1214.36644948147	-0.121164124206816	6.72162205335718e-05	17.6880289694098	1259.52808988764	0	1214.73604745908	0.112259330693285	-5.3497194140179e-05	25.2064844277364	1263.68716372022	6	3	0	1	0	0	0
251.770094652891	12.0063312318325	panas_none	263.776425884724	48	5	8	10	n/a	n/a	n/a	n/a	n/a	n/a	n/a	n/a	2000	0	BLOCKED	n/a	n/a	+	0	scared	At this moment	3	3	11	235	NONE	n/a	0.408239700374532	n/a	n/a	n/a	n/a	1936.59915611814	0.0415065334358186	1625.74657384302	0.457434079701557	-9.3975058943475e-05	18.3269439737633	1943.95910184443	8	4	0	1	0	0	0
264.782345965624	2.51381992793085	punish_vlpfc	267.296165893555	49	4	9	10	0	0	0	0	250	250	250	750	2000	0	BLOCKED	0.25	1	2	-1	inspired	At this moment	5	3	11	235	VLPFC	464.359096288681	0	4286.80932601072	-2.64531825051041	0.00060959009852204	14.7158880210818	1452.20099875156	0.511913912375096	n/a	n/a	n/a	n/a	1360.54960629921	1	1	0	0	1	0	0
268.305220383644	2.54362767076492	punish_vlpfc	270.848848054409	50	4	9	10	0	0	0	0	250	250	250	750	2000	0	BLOCKED	0.25	-1	10	-1	upset	At this moment	2	3	11	235	VLPFC	394.600945472717	0.394506866416979	n/a	n/a	n/a	n/a	1602.75257731959	0	923.299796320588	1.13358540133173	-0.00048909857177677	42.3546107135576	1464.58647194466	1	2	0	0	1	0	0
271.853315001965	2.51522898411753	punish_vlpfc	274.368543986082	51	4	9	10	0	0	0	0	250	250	250	750	2000	0	BLOCKED	0.25	1	10	1	alert	At this moment	3	3	11	235	VLPFC	236.968258619308	0	5388.09158778005	-3.76809153685283	0.000840872236460057	22.156295489032	1227.14731585518	0	983.338172652942	0.766703374668508	-0.000353097642964728	51.1600968085722	1329.71637202152	0	3	0	0	1	0	0
275.374854060888	2.53006850266456	punish_vlpfc	277.904922563553	52	4	9	10	0	0	0	0	250	250	250	750	2000	0	BLOCKED	0.25	1	0	-1	proud	At this moment	4	3	11	235	VLPFC	326.733172416687	0.548064918851436	n/a	n/a	n/a	n/a	1315.67127071823	0	1012.95691762544	0.440983746683834	-0.000186679348015089	25.8217888825079	1226.48193697156	3	4	0	0	1	0	0
278.916047266245	2.50868124532695	punish_vlpfc	281.424728511572	53	4	9	10	0	0	0	0	250	250	250	750	2000	0	BLOCKED	0.25	1	4	-1	interested	At this moment	3	3	11	235	VLPFC	381.948355197906	0.364544319600499	n/a	n/a	n/a	n/a	1477.37131630648	0	1003.06736699011	0.458574497266738	-0.000151689138163913	42.3378978675177	1263.42505764796	1	5	0	0	1	0	0
282.426638636112	2.53372549009322	punish_vlpfc	284.960364126205	54	4	9	10	0	0	0	0	250	250	250	750	2000	0	BLOCKED	0.25	-1	4	1	hostile	At this moment	5	3	11	235	VLPFC	292.332950353622	0.927590511860175	n/a	n/a	n/a	n/a	1399.31034482759	0	983.44873900596	0.747274672682886	-0.000302194589286557	22.9084713643989	1356.93543428132	4	6	0	0	1	0	0
285.967952436209	2.5619700834751	punish_vlpfc	288.529922519684	55	4	9	10	0	0	0	0	250	250	250	750	2000	0	BLOCKED	0.25	-1	8	-1	active	At this moment	5	3	11	235	VLPFC	628.148469924927	0.764044943820225	n/a	n/a	n/a	n/a	1017.42328042328	0.986164488854727	n/a	n/a	n/a	n/a	1024.61111111111	12	7	0	0	1	0	0
289.53959303093	2.526696782589	punish_vlpfc	292.066289813519	56	4	9	10	0	0	0	0	250	250	250	750	2000	0	BLOCKED	0.25	1	4	-1	scared	At this moment	1	3	11	235	VLPFC	317.317602872849	0	387.610971089907	0.555560838071338	-6.49160742880593e-05	31.7630115773619	1264.54556803995	0.672559569561875	n/a	n/a	n/a	n/a	858.791079812207	18	8	0	0	1	0	0
293.073691941977	6.08142447280881	panas_none	299.155116414785	57	5	10	10	n/a	n/a	n/a	n/a	n/a	n/a	n/a	n/a	2000	0	BLOCKED	n/a	n/a	+	0	ashamed	At this moment	3	3	11	235	NONE	n/a	0.945068664169788	n/a	n/a	n/a	n/a	847.909090909091	0.330514988470407	n/a	n/a	n/a	n/a	958.843857634902	21	1	0	1	0	0	1
300.163500227928	6.04750345659255	panas_none	306.211003684521	58	5	10	10	n/a	n/a	n/a	n/a	n/a	n/a	n/a	n/a	2000	0	BLOCKED	n/a	n/a	+	0	nervous	At this moment	2	3	11	235	NONE	n/a	0	738.150276511975	0.227713301997125	2.02832456167322e-05	26.1880535751437	1306.22097378277	0.5380476556495	n/a	n/a	n/a	n/a	1280.85024958403	11	2	0	1	0	0	1
307.219059564352	6.06432961773874	panas_none	313.283389182091	59	5	10	10	n/a	n/a	n/a	n/a	n/a	n/a	n/a	n/a	2000	0	BLOCKED	n/a	n/a	+	0	hostile	At this moment	1	3	11	235	NONE	n/a	0.398252184769039	n/a	n/a	n/a	n/a	1204.95643153527	0.574173712528824	n/a	n/a	n/a	n/a	1188.93682310469	12	3	0	1	0	0	1
314.289281758785	6.55035383319853	panas_none	320.839635591984	60	5	10	10	n/a	n/a	n/a	n/a	n/a	n/a	n/a	n/a	2000	0	BLOCKED	n/a	n/a	+	0	alert	At this moment	3	3	11	235	NONE	n/a	0	1833.61133394939	-0.289108121427961	6.95731695939153e-05	29.6067026283469	1536.86017478152	0.564181398923905	n/a	n/a	n/a	n/a	1300	6	4	0	1	0	0	1
321.850041661739	2.52582722997664	punish_rtpj	324.375868891716	61	3	11	10	750	250	250	250	0	0	0	0	2000	0	BLOCKED	0.25	1	1	-1	ashamed	At this moment	2	3	11	235	RTPJ	380.798472166061	0.518102372034956	n/a	n/a	n/a	n/a	1903.19170984456	0.291314373558801	n/a	n/a	n/a	n/a	1775.45119305857	2	1	0	0	1	0	0
325.368622267008	2.52657936096193	punish_rtpj	327.89520162797	62	3	11	10	750	250	250	250	0	0	0	0	2000	0	BLOCKED	0.25	1	1	-1	irritable	At this moment	1	3	11	235	RTPJ	646.495819091797	0.48689138576779	n/a	n/a	n/a	n/a	1579.45742092457	0	839.790413191136	1.00888921940529	-0.000320648885775703	30.8134497073417	1421.49116064566	1	2	0	0	1	0	0
328.901660859585	2.51346590089798	punish_rtpj	331.415126760483	63	3	11	10	750	250	250	250	0	0	0	0	2000	0	BLOCKED	0.25	-1	0	1	excited	At this moment	1	3	11	235	RTPJ	468.356711387634	0.710362047440699	n/a	n/a	n/a	n/a	1617.97413793103	0	1039.31530014443	0.826259394770597	-0.000310059050092527	34.5288531163013	1473.37893927748	4	3	0	0	1	0	0
332.419582424164	2.51462706756593	punish_rtpj	334.93420949173	64	3	11	10	750	250	250	250	0	0	0	0	2000	0	BLOCKED	0.25	-1	1	1	alert	At this moment	3	3	11	235	RTPJ	389.326858758926	0.355805243445693	n/a	n/a	n/a	n/a	1828.27519379845	0.307455803228286	n/a	n/a	n/a	n/a	1333.27746947836	2	4	0	0	1	0	0
335.941443069696	2.54617497324944	punish_rtpj	338.487618042946	65	3	11	10	750	250	250	250	0	0	0	0	2000	0	BLOCKED	0.25	-1	6	-1	guilty	At this moment	4	3	11	235	RTPJ	1499.85207724571	0	1553.49611841754	0.131968571997703	-2.13741962806119e-05	27.4170489770066	1736.03870162297	0	1078.06801602624	1.0464695242038	-0.000402451258786806	32.3821222898651	1623.56033820138	0	5	0	0	1	0	0
339.494152734518	2.56253955912592	punish_rtpj	342.056692293644	66	3	11	10	750	250	250	250	0	0	0	0	2000	0	BLOCKED	0.25	-1	7	-1	afraid	At this moment	5	3	11	235	RTPJ	768.090379953384	0	7702.61483785455	-5.20870128072735	0.00114676488665652	27.4743653139654	1882.31835205993	0.653343581860108	n/a	n/a	n/a	n/a	1840.24168514412	3	6	0	0	1	0	0
343.044789366245	2.53163835215571	punish_rtpj	345.576427718401	67	3	11	10	750	250	250	250	0	0	0	0	2000	0	BLOCKED	0.25	-1	7	-1	jittery	At this moment	2	3	11	235	RTPJ	320.7020175457	0.426966292134831	n/a	n/a	n/a	n/a	2115.16557734205	0.594926979246733	n/a	n/a	n/a	n/a	1819.08918406072	5	7	0	0	1	0	0
346.583715246439	2.57876979827881	punish_rtpj	349.162485044718	68	3	11	10	750	250	250	250	0	0	0	0	2000	0	BLOCKED	0.25	-1	10	-1	alert	At this moment	3	3	11	235	RTPJ	800.700720071793	0.00624219725343321	5054.14770922085	-2.59723298952987	0.000497842544907135	21.4275659533385	1824.04899497487	0.194465795541891	1207.81138892717	1.39464618875652	-0.000566887338332313	35.8734499289223	1976.89408396947	2	8	0	0	1	0	0
350.163900095224	6.02094401812553	panas_none	356.18484411335	69	5	12	10	n/a	n/a	n/a	n/a	n/a	n/a	n/a	n/a	2000	0	BLOCKED	n/a	n/a	+	0	scared	At this moment	2	3	11	235	NONE	n/a	0.950062421972534	n/a	n/a	n/a	n/a	1329.925	0.0238278247501922	1658.44997574942	-0.190712483885757	-0.000100259216925856	64.5720282577031	1420.20157480315	29	1	0	1	0	0	0
357.189068460941	6.01812061691282	panas_none	363.207189077854	70	5	12	10	n/a	n/a	n/a	n/a	n/a	n/a	n/a	n/a	2000	0	BLOCKED	n/a	n/a	+	0	active	At this moment	4	3	11	235	NONE	n/a	0.99625468164794	n/a	n/a	n/a	n/a	1247	0.565718677940046	n/a	n/a	n/a	n/a	1331.55044247788	13	2	0	1	0	0	0
364.213787592888	6.04912337732316	panas_none	370.262910970211	71	5	12	10	n/a	n/a	n/a	n/a	n/a	n/a	n/a	n/a	2000	0	BLOCKED	n/a	n/a	+	0	ashamed	At this moment	2	3	11	235	NONE	n/a	0.470661672908864	n/a	n/a	n/a	n/a	1709.04952830189	0.336664104534973	n/a	n/a	n/a	n/a	1434.08690614137	7	3	0	1	0	0	0
371.268807073116	6.48360314989088	panas_none	377.752410223007	72	5	12	10	n/a	n/a	n/a	n/a	n/a	n/a	n/a	n/a	2000	0	BLOCKED	n/a	n/a	+	0	guilty	At this moment	3	3	11	235	NONE	n/a	0.705368289637953	n/a	n/a	n/a	n/a	2080.40677966102	0.265949269792467	n/a	n/a	n/a	n/a	1815.6554973822	8	4	0	1	0	0	0
378.759260859013	2.52926171612739	reward_rtpj	381.28852257514	73	1	13	10	750	250	250	250	0	0	0	0	2000	0	BLOCKED	0.75	1	10	1	hostile	At this moment	2	3	11	235	RTPJ	1486.20651865005	0.499375780274657	n/a	n/a	n/a	n/a	2065.04738154613	0.294388931591084	n/a	n/a	n/a	n/a	1821.06753812636	4	1	1	0	0	0	0
382.294896473646	2.54657484054565	reward_rtpj	384.841471314192	74	1	13	10	750	250	250	250	0	0	0	0	2000	0	BLOCKED	0.75	1	8	1	afraid	At this moment	1	3	11	235	RTPJ	344.324511528015	0.50561797752809	n/a	n/a	n/a	n/a	1940.91666666667	0.452728670253651	n/a	n/a	n/a	n/a	1962.15449438202	3	2	1	0	0	0	0
385.850413319588	2.51050427365305	reward_rtpj	388.360917593241	75	1	13	10	750	250	250	250	0	0	0	0	2000	0	BLOCKED	0.75	1	4	-1	jittery	At this moment	4	3	11	235	RTPJ	257.686602115631	0.48314606741573	n/a	n/a	n/a	n/a	1929.32367149758	0	1290.4392394136	0.481944128814244	-5.93439418556128e-05	31.7720921205572	1649.5618754804	3	3	1	0	0	0	0
389.370406507015	2.52693021464347	reward_rtpj	391.897336721659	76	1	13	10	750	250	250	250	0	0	0	0	2000	0	BLOCKED	0.75	1	7	1	irritable	At this moment	4	3	11	235	RTPJ	65.3765366077423	0.808988764044944	n/a	n/a	n/a	n/a	1766.78431372549	0	1216.28227323906	0.227369415339426	7.0905161135807e-05	31.099807525717	1471.01460415065	4	4	1	0	0	0	0
392.902895018101	2.51391513419151	reward_rtpj	395.416810152292	77	1	13	10	750	250	250	250	0	0	0	0	2000	0	BLOCKED	0.75	1	8	1	guilty	At this moment	1	3	11	235	RTPJ	495.599873065948	1	n/a	n/a	n/a	n/a	n/a	1	n/a	n/a	n/a	n/a	n/a	3	5	1	0	0	0	0
396.422957318068	2.5467529120445	reward_rtpj	398.969710230112	78	1	13	10	750	250	250	250	0	0	0	0	2000	0	BLOCKED	0.75	1	3	-1	hostile	At this moment	3	3	11	235	RTPJ	534.68425488472	0.732833957553059	n/a	n/a	n/a	n/a	1365.22897196262	0.202152190622598	1067.20781631103	0.400975194758481	-0.00016126995972877	24.5328111722551	1290.50192678227	8	6	1	0	0	0	0
399.979114163399	2.50993479776383	reward_rtpj	402.489048961163	79	1	13	10	750	250	250	250	0	0	0	0	2000	0	BLOCKED	0.75	1	6	1	enthusiastic	At this moment	4	3	11	235	RTPJ	347.468794345856	0	4395.74525550281	-2.883925065444	0.000642869782461736	34.2071994744493	1208.97378277154	0	913.72502895238	0.510294154860971	-0.000183943679407626	37.5716551190469	1187.76633358955	1	7	1	0	0	0	0
403.49610764122	2.56276417589191	reward_rtpj	406.058871817112	80	1	13	10	750	250	250	250	0	0	0	0	2000	0	BLOCKED	0.75	1	8	1	distressed	At this moment	2	3	11	235	RTPJ	533.75440454483	0.248439450686642	4832.15336699554	-3.23899198723466	0.000779997317283171	51.1146557940297	1498.81727574751	0.697156033820138	n/a	n/a	n/a	n/a	1443.55583756345	7	8	1	0	0	0	0
407.064037651062	6.03358779311179	panas_none	413.097625444174	81	5	14	10	n/a	n/a	n/a	n/a	n/a	n/a	n/a	n/a	2000	0	BLOCKED	n/a	n/a	+	0	interested	At this moment	4	3	11	235	NONE	n/a	0.414481897627965	n/a	n/a	n/a	n/a	1461.69722814499	0.421983089930822	n/a	n/a	n/a	n/a	1345.42686170213	7	1	0	1	0	1	0
414.10665102005	6.0635087258816	panas_none	420.170159745932	82	5	14	10	n/a	n/a	n/a	n/a	n/a	n/a	n/a	n/a	2000	0	BLOCKED	n/a	n/a	+	0	attentive	At this moment	4	3	11	235	NONE	n/a	0	2799.6150639368	-1.46616634876987	0.000323641108179125	22.6950856852308	1164.73907615481	0	1454.42324859486	-0.298346187359885	0.000115140115409685	19.1911778962785	1300.01998462721	9	2	0	1	0	1	0
421.178168022633	6.03107822060588	panas_none	427.209246243238	83	5	14	10	n/a	n/a	n/a	n/a	n/a	n/a	n/a	n/a	2000	0	BLOCKED	n/a	n/a	+	0	afraid	At this moment	2	3	11	235	NONE	n/a	1	n/a	n/a	n/a	n/a	n/a	1	n/a	n/a	n/a	n/a	n/a	18	3	0	1	0	1	0
428.216073254108	9.18465334796906	panas_none	437.400726602077	84	5	14	10	n/a	n/a	n/a	n/a	n/a	n/a	n/a	n/a	2000	0	BLOCKED	n/a	n/a	+	0	excited	At this moment	1	3	11	235	NONE	n/a	1	n/a	n/a	n/a	n/a	n/a	1	n/a	n/a	n/a	n/a	n/a	31	4	0	1	0	1	0
438.410124893427	2.51187736272811	reward_rtpj	440.922002256155	85	1	15	10	750	250	250	250	0	0	0	0	2000	0	BLOCKED	0.75	1	1	-1	jittery	At this moment	2	3	11	235	RTPJ	422.793351411819	0.901373283395755	n/a	n/a	n/a	n/a	1682.43037974684	0.794004611837048	n/a	n/a	n/a	n/a	1537.60074626866	19	1	1	0	0	0	0
441.924862329721	2.51533089017869	reward_rtpj	444.4401932199	86	1	15	10	750	250	250	250	0	0	0	0	2000	0	BLOCKED	0.75	-1	9	-1	determined	At this moment	3	3	11	235	RTPJ	286.362798213959	0.982521847690387	n/a	n/a	n/a	n/a	1349.35714285714	0.671022290545734	n/a	n/a	n/a	n/a	1312.97897196262	7	2	1	0	0	0	0
445.423918551207	2.5189043073654	reward_rtpj	447.942822858572	87	1	15	10	750	250	250	250	0	0	0	0	2000	0	BLOCKED	0.75	1	10	1	inspired	At this moment	5	3	11	235	RTPJ	224.099866628647	1	n/a	n/a	n/a	n/a	n/a	1	n/a	n/a	n/a	n/a	n/a	7	3	1	0	0	0	0
448.934608653784	2.52757409262654	reward_rtpj	451.46218274641	88	1	15	10	750	250	250	250	0	0	0	0	2000	0	BLOCKED	0.75	1	6	1	enthusiastic	At this moment	5	3	11	235	RTPJ	251.809540271759	1	n/a	n/a	n/a	n/a	n/a	1	n/a	n/a	n/a	n/a	n/a	7	4	1	0	0	0	0
452.468131389141	2.54707379317284	reward_rtpj	455.015205182314	89	1	15	10	750	250	250	250	0	0	0	0	2000	0	BLOCKED	0.75	1	9	1	interested	At this moment	2	3	11	235	RTPJ	719.31997179985	0.478152309612984	n/a	n/a	n/a	n/a	1399.39473684211	0.896233666410454	n/a	n/a	n/a	n/a	1560.75555555556	16	5	1	0	0	0	0
456.024249799252	2.52703353142738	reward_rtpj	458.551283330679	90	1	15	10	750	250	250	250	0	0	0	0	2000	0	BLOCKED	0.75	1	9	1	alert	At this moment	1	3	11	235	RTPJ	365.906765937805	1	n/a	n/a	n/a	n/a	n/a	0.845503458877786	n/a	n/a	n/a	n/a	1146.20895522388	19	6	1	0	0	0	0
459.541106814384	2.54628992629051	reward_rtpj	462.087396740675	91	1	15	10	750	250	250	250	0	0	0	0	2000	0	BLOCKED	0.75	1	7	1	distressed	At this moment	5	3	11	235	RTPJ	1268.55530500412	0.940074906367041	n/a	n/a	n/a	n/a	1248.6875	0.79554189085319	n/a	n/a	n/a	n/a	1132.86090225564	7	7	1	0	0	0	0
463.094349988222	2.52937279009819	reward_rtpj	465.62372277832	92	1	15	10	750	250	250	250	0	0	0	0	2000	0	BLOCKED	0.75	1	10	1	hostile	At this moment	1	3	11	235	RTPJ	458.40728020668	0.33083645443196	n/a	n/a	n/a	n/a	1489.03171641791	0.768639508070715	n/a	n/a	n/a	n/a	1546.91362126246	8	8	1	0	0	0	0
466.612710560799	6.06667346024517	panas_none	472.679384021044	93	5	16	10	n/a	n/a	n/a	n/a	n/a	n/a	n/a	n/a	2000	0	BLOCKED	n/a	n/a	+	0	ashamed	At this moment	1	3	11	235	NONE	n/a	0.941323345817728	n/a	n/a	n/a	n/a	1194.23404255319	0.389700230591852	n/a	n/a	n/a	n/a	1099.19395465995	33	1	0	1	0	1	0
473.687942379713	6.06391352987293	panas_none	479.751855909586	94	5	16	10	n/a	n/a	n/a	n/a	n/a	n/a	n/a	n/a	2000	0	BLOCKED	n/a	n/a	+	0	afraid	At this moment	1	3	11	235	NONE	n/a	0.947565543071161	n/a	n/a	n/a	n/a	1216.59523809524	0.994619523443505	n/a	n/a	n/a	n/a	1155.85714285714	19	2	0	1	0	1	0
480.743146983623	6.04844353270533	panas_none	486.791590516329	95	5	16	10	n/a	n/a	n/a	n/a	n/a	n/a	n/a	n/a	2000	0	BLOCKED	n/a	n/a	+	0	guilty	At this moment	1	3	11	235	NONE	n/a	1	n/a	n/a	n/a	n/a	n/a	0.983089930822444	n/a	n/a	n/a	n/a	829.181818181818	45	3	0	1	0	1	0
487.780396700859	6.63325541687016	panas_none	494.413652117729	96	5	16	10	n/a	n/a	n/a	n/a	n/a	n/a	n/a	n/a	2000	0	BLOCKED	n/a	n/a	+	0	determined	At this moment	1	3	11	235	NONE	n/a	0.332084893882647	n/a	n/a	n/a	n/a	1642.60934579439	1	n/a	n/a	n/a	n/a	n/a	28	4	0	1	0	1	0
