onset	duration	trial_type	offset	trial	block	blockCntr	frequency	amplitude_1	amplitude_2	amplitude_3	amplitude_4	amplitude_5	amplitude_6	amplitude_7	amplitude_8	transition	sham	mode	rewardFraction	guess	outcome	correct	word	when	answer	runNr	scanNr	subjectNr	target	reactionTime	outcomeEyeClosed	outcomeParms_1	outcomeParms_2	outcomeParms_3	outcomeSigma	outcomePupilArea	guessEyeClosed	guessParms_1	guessParms_2	guessParms_3	guessSigma	guessPupilArea	nrBlinks	trialInBlock	isReward	isPanas	isPunish	beforePanasReward	beforePanasVLPFC
20.435095241785	2.55810278072953	punish_vlpfc	22.9931980225146	1	4	1	10	0	0	0	0	250	250	250	750	2000	0	BLOCKED	0.25	1	8	1	determined	At this moment	2	1	6	209	VLPFC	1541.69375939667	0	23463.2139152629	-19.4707489987043	0.00427764639263625	44.603143033295	1612.80898876404	0	2841.01403389885	-1.72448617876092	0.000776133434179063	64.2175672504326	2018.22751729439	0	1	0	0	1	0	0
23.993802407667	2.51879623688757	punish_vlpfc	26.5125986445546	2	4	1	10	0	0	0	0	250	250	250	750	2000	0	BLOCKED	0.25	1	8	1	irritable	At this moment	3	1	6	209	VLPFC	1488.88269850612	0	11274.2156117241	-8.92187282414617	0.0019760537827728	35.0663824160773	1357.37328339576	0	1137.39938719275	0.704598160180421	-0.000241522842659012	64.0649590803027	1528.20368946964	0	2	0	0	1	0	0
27.5134318779707	2.51868057855964	punish_vlpfc	30.0321124565303	3	4	1	10	0	0	0	0	250	250	250	750	2000	0	BLOCKED	0.25	1	2	-1	scared	At this moment	3	1	6	209	VLPFC	842.018872052431	0	9318.6031797821	-7.14234613467299	0.00166222956608374	10.7581095509209	1704.911360799	0	626.602034147659	0.944593460698861	-0.000181715537105129	25.961787416949	1274.36587240584	0	3	0	0	1	0	0
31.0162609222978	2.51869785679877	punish_vlpfc	33.5349587790966	4	4	1	10	0	0	0	0	250	250	250	750	2000	0	BLOCKED	0.25	1	3	-1	attentive	At this moment	1	1	6	209	VLPFC	991.31575421989	0	2329.5842662665	-0.863131687633813	0.000234814651520036	9.48721910037418	1565.19350811486	0	1095.58181184054	0.333892234285419	-4.13442855483552e-05	63.3725488121645	1344.72252113759	1	4	0	0	1	0	0
34.5357687398195	2.51869785679877	punish_vlpfc	37.0544665966183	5	4	1	10	0	0	0	0	250	250	250	750	2000	0	BLOCKED	0.25	1	4	-1	alert	At this moment	2	1	6	209	VLPFC	875.75125002861	0	1779.3836037429	-0.33919609814474	4.97232644534815e-05	11.7728568830006	1289.32459425718	0	458.31891976416	2.07367186456333	-0.00097419863200214	24.4938345834383	1397.64411990776	0	5	0	0	1	0	0
38.0385371340662	2.51883361425996	punish_vlpfc	40.5573707483262	6	4	1	10	0	0	0	0	250	250	250	750	2000	0	BLOCKED	0.25	-1	9	-1	irritable	At this moment	1	1	6	209	VLPFC	540.654245153069	0	6796.91688997669	-4.39232647801883	0.000883490403755577	12.90159962465	1503.95755305868	0	897.877434028339	0.987733336335011	-0.000299511060344419	13.9739142346757	1478.48116833205	0	6	0	0	1	0	0
41.5581789459586	2.51870279341936	punish_vlpfc	44.076881739378	7	4	1	10	0	0	0	0	250	250	250	750	2000	0	BLOCKED	0.25	1	3	-1	scared	At this moment	4	1	6	209	VLPFC	557.886626645923	0	3373.63959430909	-1.94125331452323	0.000482008660858383	33.2022007249962	1448.34082397004	0	622.395829921682	1.01476209062241	-0.000379706065926693	26.2856541454839	1157.26979246733	0	7	0	0	1	0	0
45.0776864108592	2.51866083201766	punish_vlpfc	47.5963472428769	8	4	1	10	0	0	0	0	250	250	250	750	2000	0	BLOCKED	0.25	-1	6	-1	afraid	At this moment	5	1	6	209	VLPFC	474.582678049803	0	-97.9655928666102	0.901812344287442	-0.000150213198886659	11.2452257994246	1125.46566791511	0	764.822365687476	0.532778266516974	-0.000242685521574283	20.8078338274438	1007.88700999231	0	8	0	0	1	0	0
48.5933901986778	6.00869129811227	panas_none	54.60208149679	9	5	2	10	n/a	n/a	n/a	n/a	n/a	n/a	n/a	n/a	2000	0	BLOCKED	n/a	n/a	+	0	determined	At this moment	3	1	6	209	NONE	n/a	0	672.572628898277	0.146462444761901	-4.35252417504897e-05	6.8865225059183	785.750312109863	0	241.380780427324	1.7563324245062	-0.000930669427552957	51.2869194223214	942.232129131437	0	1	0	1	0	0	1
55.6029094409645	6.02145637777448	panas_none	61.6243658187389	10	5	2	10	n/a	n/a	n/a	n/a	n/a	n/a	n/a	n/a	2000	0	BLOCKED	n/a	n/a	+	0	guilty	At this moment	2	1	6	209	NONE	n/a	0	-1168.04174947345	1.82142156341329	-0.000341021540007417	10.5073971615936	1135.01747815231	0	1093.68500315745	-0.490962671042748	0.000272436059907103	11.6243740136714	909.880860876249	1	2	0	1	0	0	1
62.6085738767385	6.02156568898261	panas_none	68.6301395657212	11	5	2	10	n/a	n/a	n/a	n/a	n/a	n/a	n/a	n/a	2000	0	BLOCKED	n/a	n/a	+	0	enthusiastic	At this moment	4	1	6	209	NONE	n/a	0	1493.79463420212	-0.433595103090361	0.000127937678662523	13.3052538143222	1153.79775280899	0	1073.38239537336	0.0476621740808958	8.88093848148699e-07	11.7302519907155	1114.26287471176	1	3	0	1	0	0	1
69.630932953462	13.6777918432504	panas_none	83.3087247967124	12	5	2	10	n/a	n/a	n/a	n/a	n/a	n/a	n/a	n/a	2000	0	BLOCKED	n/a	1	1	-1	proud	At this moment	1	1	6	209	NONE	n/a	0	1307.13705809499	-0.0641498955812176	8.15981827635599e-05	7.50148503446913	1536.49313358302	0.411990776325903	n/a	n/a	n/a	n/a	1089.92549019608	10	4	0	1	0	0	1
84.2927777033299	2.51885477125644	punish_rtpj	86.8116324745864	13	3	3	10	750	250	250	250	0	0	0	0	2000	0	BLOCKED	0.25	1	2	-1	determined	At this moment	1	1	6	209	RTPJ	823.686326235533	0	-36.6605993726796	1.45008625416779	-0.00028482673189483	34.2604704223719	1737.96379525593	0	458.179131643618	0.922569432175465	-0.000160177837241107	14.1769094166898	1105.3428132206	0	1	0	0	1	0	0
87.812392011106	2.51876555922628	punish_rtpj	90.3311575703323	14	3	3	10	750	250	250	250	0	0	0	0	2000	0	BLOCKED	0.25	1	1	-1	distressed	At this moment	5	1	6	209	RTPJ	1057.10205435753	0	1698.3811179801	-0.127073681316942	5.02007829429801e-05	18.0691514582169	1655.83520599251	0	1039.42723132369	0.461463118495179	-6.39669873314291e-05	18.8241683522644	1377.01537279016	0	2	0	0	1	0	0
91.3152827633917	2.51872677136957	punish_rtpj	93.8340095347613	15	3	3	10	750	250	250	250	0	0	0	0	2000	0	BLOCKED	0.25	1	1	-1	jittery	At this moment	3	1	6	209	RTPJ	1073.58336213231	0	3449.86795828392	-2.23426371855711	0.000547953258286745	16.9992005639215	1203.25218476904	0	806.672807693917	0.710287080662366	-0.000236206227174689	17.1856931696941	1206.15833973866	0	3	0	0	1	0	0
94.818010606721	2.51879200546443	punish_rtpj	97.3368026121855	16	3	3	10	750	250	250	250	0	0	0	0	2000	0	BLOCKED	0.25	1	6	1	interested	At this moment	4	1	6	209	RTPJ	891.485362872481	0	6827.77805959228	-5.02025431606426	0.00106440125298276	17.1143239407197	1035.44319600499	0	828.2406175353	0.806208128610792	-0.000324434974936091	36.2349642196354	1234.00845503459	0	4	0	0	1	0	0
98.3376118676662	2.5187295923084	punish_rtpj	100.856341459975	17	3	3	10	750	250	250	250	0	0	0	0	2000	0	BLOCKED	0.25	1	9	1	attentive	At this moment	4	1	6	209	RTPJ	641.239941611886	0	12715.6695950604	-10.5894184726692	0.00238061913157242	22.5799309934346	1100.07740324594	0	487.616961137859	1.05104741588729	-0.000288658943944695	27.753048272926	1132.60799385088	0	5	0	0	1	0	0
101.840500151619	2.51867458409072	punish_rtpj	104.35917473571	18	3	3	10	750	250	250	250	0	0	0	0	2000	0	BLOCKED	0.25	-1	10	-1	guilty	At this moment	5	1	6	209	RTPJ	1090.86652044952	0	2392.04500399907	-1.18563716625719	0.000302502017445557	30.3894762302793	1252.79400749064	0	655.704222141837	0.26424084769493	6.05998162173365e-05	16.7654779570743	933.186779400461	0	6	0	0	1	0	0
105.343247036263	2.51868057857453	punish_rtpj	107.861927614838	19	3	3	10	750	250	250	250	0	0	0	0	2000	0	BLOCKED	0.25	1	0	-1	nervous	At this moment	2	1	6	209	RTPJ	1490.13660372794	0	2707.9903503177	-1.43031812903438	0.000305455410251769	12.4893002954647	1067.5418227216	0	605.973367577808	1.1971147091283	-0.000567737864723297	22.9968028387127	1134.23443504996	0	7	0	0	1	0	0
108.846448443905	2.51838966974616	punish_rtpj	111.364838113651	20	3	3	10	750	250	250	250	0	0	0	0	2000	0	BLOCKED	0.25	-1	10	-1	proud	At this moment	4	1	6	209	RTPJ	974.482887506485	0.172284644194757	9540.09862123792	-8.00431130051444	0.00191591116511877	22.0425461715538	1243.15987933635	0	251.07563702854	1.37028984256214	-0.000446550373343753	20.9090604149695	1039.01767870869	1	8	0	0	1	0	0
112.365737639025	6.02138268086314	panas_none	118.387120319888	21	5	4	10	n/a	n/a	n/a	n/a	n/a	n/a	n/a	n/a	2000	0	BLOCKED	n/a	n/a	+	0	excited	At this moment	3	1	6	209	NONE	n/a	0	2095.64807885551	-1.69882304440762	0.000503009964686785	8.87037822315968	768.136079900125	0	594.804801959447	0.42896614832008	-0.00025917713609543	26.7921233932899	747.903151421983	3	1	0	1	0	0	0
119.371282890335	6.02164432251453	panas_none	125.392927212849	22	5	4	10	n/a	n/a	n/a	n/a	n/a	n/a	n/a	n/a	2000	0	BLOCKED	n/a	n/a	+	0	hostile	At this moment	3	1	6	209	NONE	n/a	0	-1505.37676994885	2.24100826163801	-0.000493506732442711	24.1773148553671	998.285892634207	0	822.591822533634	0.744698558929551	-0.000440490148532105	52.9822396953569	1076.64642582629	3	2	0	1	0	0	0
126.377168064207	6.02145320422946	panas_none	132.398621268436	23	5	4	10	n/a	n/a	n/a	n/a	n/a	n/a	n/a	n/a	2000	0	BLOCKED	n/a	n/a	+	0	guilty	At this moment	3	1	6	209	NONE	n/a	0.615480649188514	n/a	n/a	n/a	n/a	784.837662337662	0	907.485295505014	-0.310996881865661	0.000133365623723438	6.98600694982033	758.335126825519	7	3	0	1	0	0	0
133.382741877466	5.25427265739441	panas_none	138.637014534861	24	5	4	10	n/a	n/a	n/a	n/a	n/a	n/a	n/a	n/a	2000	0	BLOCKED	n/a	n/a	+	0	upset	At this moment	2	1	6	209	NONE	n/a	0.31210986267166	n/a	n/a	n/a	n/a	1941.25408348457	0.596464258262875	n/a	n/a	n/a	n/a	1943.64761904762	5	4	0	1	0	0	0
139.637862578198	2.518639322415	punish_vlpfc	142.156501900613	25	4	5	10	0	0	0	0	250	250	250	750	2000	0	BLOCKED	0.25	1	10	1	ashamed	At this moment	1	1	6	209	VLPFC	1090.68315972388	0	17355.0331459004	-14.1532877126432	0.00314003403846457	35.2616811872963	1629.58801498127	0.230591852421214	919.595292278873	1.14438520109204	-0.000274351102422931	9.50902369443994	1685.62737262737	1	1	0	0	1	0	0
143.157558693066	2.51857408830523	punish_vlpfc	145.676132781371	26	4	5	10	0	0	0	0	250	250	250	750	2000	0	BLOCKED	0.25	1	9	1	scared	At this moment	3	1	6	209	VLPFC	674.219482764602	0	11557.1092987272	-8.80146067176748	0.00190065757198606	14.735196334076	1544.96754057428	0	1336.02062256573	1.07882438124153	-0.000436119050968826	14.0677304532855	1876.22367409685	0	2	0	0	1	0	0
146.660233291253	2.51884736630322	punish_vlpfc	149.179080657557	27	4	5	10	0	0	0	0	250	250	250	750	2000	0	BLOCKED	0.25	1	4	-1	hostile	At this moment	4	1	6	209	VLPFC	489.805143967271	0.392009987515606	n/a	n/a	n/a	n/a	1756.67967145791	0	797.139429142617	1.21844660874341	-0.000398508636441669	24.6705976640031	1488.87855495772	1	3	0	0	1	0	0
150.162992517471	2.51879482641817	punish_vlpfc	152.681787343889	28	4	5	10	0	0	0	0	250	250	250	750	2000	0	BLOCKED	0.25	1	3	-1	excited	At this moment	2	1	6	209	VLPFC	273.228277057409	0.374531835205993	n/a	n/a	n/a	n/a	1431.37924151697	0	861.660874971928	0.582331069742395	-0.000171379432993859	41.1595270230353	1210.39431206764	1	4	0	0	1	0	0
153.665851181626	2.51901909066737	punish_vlpfc	156.184870272294	29	4	5	10	0	0	0	0	250	250	250	750	2000	0	BLOCKED	0.25	1	2	-1	interested	At this moment	4	1	6	209	VLPFC	774.060805231333	0	204.220145080848	1.25408864444061	-0.000294417693893476	13.6474869892674	1523.74906367041	0	799.320133847349	0.945081682998055	-0.000288044111480621	16.9051274293048	1354.27747886241	0	5	0	0	1	0	0
157.16877931127	2.5187020881921	punish_vlpfc	159.687481399462	30	4	5	10	0	0	0	0	250	250	250	750	2000	0	BLOCKED	0.25	1	0	-1	ashamed	At this moment	5	1	6	209	VLPFC	923.995923757553	0	1767.25901476205	-0.525124151751901	0.000196599288017205	11.6022074257331	1541.72034956305	0	606.418415185312	0.633430152525358	-6.97286189998511e-05	11.3511169607346	1084.37740199846	0	6	0	0	1	0	0
160.671618581504	2.51869574108721	punish_vlpfc	163.190314322591	31	4	5	10	0	0	0	0	250	250	250	750	2000	0	BLOCKED	0.25	-1	10	-1	active	At this moment	1	1	6	209	VLPFC	1489.26493507624	0	2153.97097590068	-1.29404004880872	0.000375868038769884	23.9088421753046	1114.07615480649	0.230591852421214	740.644979088745	0.599036324122229	-0.000318526474615896	34.545970882598	982.168831168831	1	7	0	0	1	0	0
164.174378512949	2.51884525059162	punish_vlpfc	166.69322376354	32	4	5	10	0	0	0	0	250	250	250	750	2000	0	BLOCKED	0.25	-1	8	-1	scared	At this moment	3	1	6	209	VLPFC	423.681742206216	0.426966292134831	n/a	n/a	n/a	n/a	1016.13507625272	0	786.863511808018	1.00618059318505	-0.000558612843103597	44.1857625045844	1160.11990776326	1	8	0	0	1	0	0
167.694003046602	6.02154276889564	panas_none	173.715545815498	33	5	6	10	n/a	n/a	n/a	n/a	n/a	n/a	n/a	n/a	2000	0	BLOCKED	n/a	n/a	+	0	upset	At this moment	2	1	6	209	NONE	n/a	0.373283395755306	n/a	n/a	n/a	n/a	967.254980079681	0.0668716372021522	424.496492764199	0.576944239765127	-0.000224489139434538	36.1110058968076	737.967874794069	8	1	0	1	0	0	1
174.699621994823	6.02167217925191	panas_none	180.721294174075	34	5	6	10	n/a	n/a	n/a	n/a	n/a	n/a	n/a	n/a	2000	0	BLOCKED	n/a	n/a	+	0	irritable	At this moment	3	1	6	209	NONE	n/a	0	-5419.12952023477	6.30086215318361	-0.00141801771943067	13.6211633261915	1491.12484394507	0	1059.41518484138	0.544856139190456	-0.000180386226627813	45.047310326055	1366.89930822444	2	2	0	1	0	0	1
181.705401383668	6.02145320422949	panas_none	187.726854587898	35	5	6	10	n/a	n/a	n/a	n/a	n/a	n/a	n/a	n/a	2000	0	BLOCKED	n/a	n/a	+	0	enthusiastic	At this moment	4	1	6	209	NONE	n/a	0	-4.87428044375311	1.04535638011257	-0.000201005236545505	9.33899600869602	1293.25218476904	0	831.119404117371	0.967338359147777	-0.000531176000295537	24.0418553171271	1194.55956956188	4	3	0	1	0	0	1
188.711467802569	8.20627305231989	panas_none	196.917740854889	36	5	6	10	n/a	n/a	n/a	n/a	n/a	n/a	n/a	n/a	2000	0	BLOCKED	n/a	n/a	+	0	scared	At this moment	1	1	6	209	NONE	n/a	0	4115.75959116784	-2.43632736999663	0.000619625239745488	22.9628098720189	1764.33458177278	0	507.224018949139	1.3556796372012	-0.000354279767251344	8.56184988829314	1368.13758647194	2	4	0	1	0	0	1
197.918482407957	2.51887663349507	reward_rtpj	200.437359041452	37	1	7	10	750	250	250	250	0	0	0	0	2000	0	BLOCKED	0.75	1	9	1	inspired	At this moment	5	1	6	209	RTPJ	940.397540137172	0.397003745318352	n/a	n/a	n/a	n/a	1629.31884057971	0	907.855556519425	1.26143170574133	-0.000436904840840798	30.3482974816985	1595.64335126826	1	1	1	0	0	0	0
201.438055106953	2.51869820940493	reward_rtpj	203.956753316358	38	1	7	10	750	250	250	250	0	0	0	0	2000	0	BLOCKED	0.75	1	9	1	upset	At this moment	1	1	6	209	RTPJ	640.100284218788	0	9576.31231971189	-7.21023413094434	0.00158564489424927	19.2294615549232	1502.92259675406	0	1107.4158864245	1.10207797658873	-0.000386664451202569	21.2304192388113	1709.52805534204	0	2	1	0	0	0	0
204.940919412971	2.51872430305184	reward_rtpj	207.459643716022	39	1	7	10	750	250	250	250	0	0	0	0	2000	0	BLOCKED	0.75	-1	4	1	afraid	At this moment	3	1	6	209	RTPJ	656.908467724919	0	15687.6773896466	-12.983840642751	0.00294939428559484	45.5676906429447	1586.03870162297	0.230591852421214	475.106190006112	1.74964334858553	-0.000537068770392848	13.3616139930161	1420.38161838162	1	3	1	0	0	0	0
208.443624336198	2.51877437463401	reward_rtpj	210.962398710832	40	1	7	10	750	250	250	250	0	0	0	0	2000	0	BLOCKED	0.75	-1	0	1	active	At this moment	5	1	6	209	RTPJ	540.44020678103	0	8674.46260890199	-7.14718807908985	0.00168307091933889	35.6920549992929	1177.65917602996	0	1007.95126509386	0.661273925803011	-0.000342684666074745	21.4839567592027	1275.24058416603	0	4	1	0	0	0	0
211.946609237149	2.51872183473409	reward_rtpj	214.465331071883	41	1	7	10	750	250	250	250	0	0	0	0	2000	0	BLOCKED	0.75	-1	10	-1	interested	At this moment	5	1	6	209	RTPJ	706.684556081891	0.579275905118602	n/a	n/a	n/a	n/a	1114.62017804154	0	748.276716463559	1.26526919597311	-0.000650378661989284	20.9433277104186	1262.20368946964	1	5	1	0	0	0	0
215.466145264	2.51871407717468	reward_rtpj	217.984859341174	42	1	7	10	750	250	250	250	0	0	0	0	2000	0	BLOCKED	0.75	-1	3	1	upset	At this moment	4	1	6	209	RTPJ	507.363343372941	0	10224.2035659551	-7.96923064994551	0.00171978178381752	9.27263770365531	1154.78277153558	0	663.970840322109	1.08232851442142	-0.000342803839245743	15.1672034716672	1288.32282859339	0	6	1	0	0	0	0
218.968908721626	2.51866012680532	reward_rtpj	221.487568848431	43	1	7	10	750	250	250	250	0	0	0	0	2000	0	BLOCKED	0.75	1	9	1	distressed	At this moment	3	1	6	209	RTPJ	656.588996946812	0	9071.39307166219	-7.73374369857899	0.00184617693889519	18.0007671490375	1068.81897627965	0.230591852421214	591.723613511286	0.0641840375821826	0.000193523674273595	17.6270097388124	814.26973026973	1	7	1	0	0	0	0
222.471856597811	2.51887839658559	reward_rtpj	224.990734994397	44	1	7	10	750	250	250	250	0	0	0	0	2000	0	BLOCKED	0.75	-1	8	-1	active	At this moment	3	1	6	209	RTPJ	457.659541457891	0.615480649188514	n/a	n/a	n/a	n/a	857.577922077922	0	847.27927839123	0.205461133530134	-0.000135249773347514	18.8633549674622	905.249039200615	2	8	1	0	0	0	0
225.974746997461	6.02149551825224	panas_none	231.996242515713	45	5	8	10	n/a	n/a	n/a	n/a	n/a	n/a	n/a	n/a	2000	0	BLOCKED	n/a	n/a	+	0	irritable	At this moment	3	1	6	209	NONE	n/a	0	-539.753475809822	1.0987170782446	-0.000157220344146178	25.4571645550868	1066.14731585518	0.169100691775557	444.190142211321	0.880830457947469	-0.000461077370296369	45.210690170899	812.206290471785	4	1	0	1	0	1	0
232.980358893335	6.02158437767625	panas_none	239.001943271011	46	5	8	10	n/a	n/a	n/a	n/a	n/a	n/a	n/a	n/a	2000	0	BLOCKED	n/a	n/a	+	0	alert	At this moment	2	1	6	209	NONE	n/a	0	1131.56484067553	-0.150880047228299	5.23019068870817e-05	14.2983615994712	1048.50561797753	0	964.282868544218	-0.159072963159196	0.000117174251949159	8.71199661057419	930.098385857033	2	2	0	1	0	1	0
239.986073048085	6.02169192577901	panas_none	246.007764973864	47	5	8	10	n/a	n/a	n/a	n/a	n/a	n/a	n/a	n/a	2000	0	BLOCKED	n/a	n/a	+	0	interested	At this moment	4	1	6	209	NONE	n/a	0.0411985018726592	2786.71423115961	-1.38085609306089	0.000370104221644984	19.7296954484112	1534.23697916667	0	944.653312028319	0.630828685730529	-0.000172538895709082	14.154747630415	1331.91006917756	4	3	0	1	0	1	0
246.991742773131	11.5094790439755	panas_none	258.501221817106	48	5	8	10	n/a	n/a	n/a	n/a	n/a	n/a	n/a	n/a	2000	0	BLOCKED	n/a	n/a	+	0	strong	At this moment	4	1	6	209	NONE	n/a	0	4873.68359483379	-2.84707920077972	0.000639384861330157	23.0929540991523	1748.70287141074	0.605687932359723	n/a	n/a	n/a	n/a	1540.32943469786	10	4	0	1	0	1	0
259.501974301294	2.51865272185205	punish_rtpj	262.020627023146	49	3	9	10	750	250	250	250	0	0	0	0	2000	0	BLOCKED	0.25	1	9	1	excited	At this moment	4	1	6	209	RTPJ	1224.7554602623	0.374531835205993	n/a	n/a	n/a	n/a	2313.83233532934	0.230591852421214	1816.52411348053	1.24554033281652	-0.000403901047601548	11.2077895346515	2594.61338661339	2	1	0	0	1	0	0
263.004801935166	2.51865025351941	punish_rtpj	265.523452188686	50	3	9	10	750	250	250	250	0	0	0	0	2000	0	BLOCKED	0.25	1	0	-1	upset	At this moment	3	1	6	209	RTPJ	372.928905397654	0	2670.73588586732	-0.0850881285565341	3.57912891878128e-05	14.4577410877566	2637.84144818976	0	1644.20225296834	0.588050785990685	1.76415194103974e-05	32.6350753739599	2159.1329746349	0	2	0	0	1	0	0
266.507499806061	2.51888615414498	punish_rtpj	269.026385960206	51	3	9	10	750	250	250	250	0	0	0	0	2000	0	BLOCKED	0.25	-1	10	-1	enthusiastic	At this moment	2	1	6	209	RTPJ	657.030120521784	0.460674157303371	n/a	n/a	n/a	n/a	2113.98148148148	0	1298.0229760521	1.10069532210884	-0.000319269455138784	19.892137417138	1958.12759415834	1	3	0	0	1	0	0
270.010539009988	2.51863614887003	punish_rtpj	272.529175158858	52	3	9	10	750	250	250	250	0	0	0	0	2000	0	BLOCKED	0.25	-1	9	-1	irritable	At this moment	2	1	6	209	RTPJ	573.477577105165	0.476903870162297	n/a	n/a	n/a	n/a	1646.33174224344	0.230591852421214	1036.22308728495	1.22786001300168	-0.000464879725676633	16.2217117679855	1671.50749250749	2	4	0	0	1	0	0
273.513401905537	2.51860441336038	punish_rtpj	276.032006318897	53	3	9	10	750	250	250	250	0	0	0	0	2000	0	BLOCKED	0.25	1	10	1	hostile	At this moment	1	1	6	209	RTPJ	940.361573249102	0.515605493133583	n/a	n/a	n/a	n/a	1053.24226804124	0	601.473050177401	0.254095968246224	0.000127208075366384	34.4135604449261	927.909300538048	1	5	0	0	1	0	0
277.016093429342	2.51881633602079	punish_rtpj	279.534909765363	54	3	9	10	750	250	250	250	0	0	0	0	2000	0	BLOCKED	0.25	1	2	-1	upset	At this moment	2	1	6	209	RTPJ	1023.77483303845	0	-210.469418786572	1.40500570918776	-0.000172838592206752	13.1151610175244	1966.88514357054	0	644.276993057144	0.550676128719119	5.83523040617358e-05	13.579181608458	1167.83320522675	0	6	0	0	1	0	0
280.519062815145	2.5186502535343	punish_rtpj	283.037713068679	55	3	9	10	750	250	250	250	0	0	0	0	2000	0	BLOCKED	0.25	-1	10	-1	strong	At this moment	2	1	6	209	RTPJ	574.080904394388	0	5510.98189828871	-4.25457761325841	0.0010659231991835	11.1517446372697	1334.08988764045	0.230591852421214	1007.28192395853	0.759017737408969	-0.00034969891243137	22.9473870273398	1377.13086913087	1	7	0	0	1	0	0
284.021934878737	2.51861675493421	punish_rtpj	286.540551633671	56	3	9	10	750	250	250	250	0	0	0	0	2000	0	BLOCKED	0.25	1	1	-1	alert	At this moment	5	1	6	209	RTPJ	840.898608565331	0.815230961298377	n/a	n/a	n/a	n/a	971.141891891892	0	830.448171003318	0.270576052744811	-1.41151838283431e-05	16.3304112395627	1031.58954650269	1	8	0	0	1	0	0
287.524577036187	6.02168593129517	panas_none	293.546262967482	57	5	10	10	n/a	n/a	n/a	n/a	n/a	n/a	n/a	n/a	2000	0	BLOCKED	n/a	n/a	+	0	scared	At this moment	1	1	6	209	NONE	n/a	0	2611.19649576289	-2.0620572144757	0.000665163182229212	73.8103100936564	1242.74781523096	0	777.484713125317	0.0521548696201632	3.59432309569782e-05	99.2290512255851	855.995388162952	5	1	0	1	0	0	0
294.547068696797	6.02154700028899	panas_none	300.568615697086	58	5	10	10	n/a	n/a	n/a	n/a	n/a	n/a	n/a	n/a	2000	0	BLOCKED	n/a	n/a	+	0	nervous	At this moment	1	1	6	209	NONE	n/a	0	2896.34749919015	-1.07261482283614	0.00027104404101194	25.4618115967714	1853.84394506866	0.541122213681783	n/a	n/a	n/a	n/a	1823.26800670017	6	2	0	1	0	0	0
301.552632989422	6.02178713230785	panas_none	307.574420121729	59	5	10	10	n/a	n/a	n/a	n/a	n/a	n/a	n/a	n/a	2000	0	BLOCKED	n/a	n/a	+	0	enthusiastic	At this moment	4	1	6	209	NONE	n/a	0	955.255861474274	0.533973382671388	-0.000152425085967059	14.7467215810027	1396.27465667915	0	2070.61088843535	-0.896599131309095	0.000382593535134354	32.2747745678314	1637.8670253651	2	3	0	1	0	0	0
308.575139107317	5.8383759882152	panas_none	314.413515095532	60	5	10	10	n/a	n/a	n/a	n/a	n/a	n/a	n/a	n/a	2000	0	BLOCKED	n/a	n/a	+	0	attentive	At this moment	4	1	6	209	NONE	n/a	0.865168539325843	n/a	n/a	n/a	n/a	1535.65740740741	0.574942352036895	n/a	n/a	n/a	n/a	1174.76311030741	5	4	0	1	0	0	0
315.414052483484	2.51876520659027	reward_rtpj	317.932817690074	61	1	11	10	750	250	250	250	0	0	0	0	2000	0	BLOCKED	0.75	1	10	1	interested	At this moment	4	1	6	209	RTPJ	1006.9394980222	0.259675405742821	n/a	n/a	n/a	n/a	2067.03541315346	0.232897770945427	1017.21392752521	1.10802036382983	-0.000412119824368081	11.524357997507	1592.99098196393	4	1	1	0	0	0	0
318.916924899682	2.5186876309067	reward_rtpj	321.435612530589	62	1	11	10	750	250	250	250	0	0	0	0	2000	0	BLOCKED	0.75	1	1	-1	guilty	At this moment	5	1	6	209	RTPJ	690.370036035776	0.805243445692884	n/a	n/a	n/a	n/a	1711.87820512821	0	1258.60419560257	1.29409102878232	-0.000664470023760221	24.2526563024311	1785.70637970792	1	2	1	0	0	0	0
322.419600203112	2.51879623687267	reward_rtpj	324.938396439984	63	1	11	10	750	250	250	250	0	0	0	0	2000	0	BLOCKED	0.75	1	2	-1	alert	At this moment	3	1	6	209	RTPJ	623.702546596527	1	n/a	n/a	n/a	n/a	n/a	1	n/a	n/a	n/a	n/a	n/a	4	3	1	0	0	0	0
325.922667969003	2.51868445734681	reward_rtpj	328.44135242635	64	1	11	10	750	250	250	250	0	0	0	0	2000	0	BLOCKED	0.75	1	9	1	irritable	At this moment	1	1	6	209	RTPJ	1341.8192909658	1	n/a	n/a	n/a	n/a	n/a	1	n/a	n/a	n/a	n/a	n/a	1	4	1	0	0	0	0
329.425451173156	2.51868692566455	reward_rtpj	331.944138098821	65	1	11	10	750	250	250	250	0	0	0	0	2000	0	BLOCKED	0.75	-1	3	1	scared	At this moment	4	1	6	209	RTPJ	1190.12038336694	0	10583.7657132468	-8.88715586033658	0.00204550712044789	10.2250166177297	1031.96754057428	0.690238278247502	n/a	n/a	n/a	n/a	1241.15384615385	2	5	1	0	0	0	0
332.928183247894	2.51874581266941	reward_rtpj	335.446929060563	66	1	11	10	750	250	250	250	0	0	0	0	2000	0	BLOCKED	0.75	-1	4	1	ashamed	At this moment	3	1	6	209	RTPJ	490.06713822484	0	15661.6845585131	-12.5853676691381	0.00278185444345328	15.1299598045468	1657.11360799001	0	1176.47119673397	0.773095490793684	-0.0001574182712723	19.5251510006779	1698.56802459646	0	6	1	0	0	0	0
336.43101335007	2.51878072173895	reward_rtpj	338.949794071808	67	1	11	10	750	250	250	250	0	0	0	0	2000	0	BLOCKED	0.75	-1	4	1	nervous	At this moment	1	1	6	209	RTPJ	823.456067472696	0	15333.3219445409	-12.4539033230414	0.00281387026818551	17.0747758364899	1747.4606741573	0	1035.38033146717	0.92679699384811	-0.000197216509640027	8.44609569039032	1652.74634896234	0	7	1	0	0	0	0
339.933935485244	2.51875991733374	reward_rtpj	342.452695402578	68	1	11	10	750	250	250	250	0	0	0	0	2000	0	BLOCKED	0.75	1	10	1	inspired	At this moment	2	1	6	209	RTPJ	956.933856144547	0	15637.005773708	-13.6458264109239	0.003262338491993	51.7011395375895	1541.69038701623	0.230591852421214	1056.86582048076	0.573666246856957	-9.47152209656931e-05	19.3204642629749	1505.3986013986	1	8	1	0	0	0	0
343.453391468078	6.02162739691141	panas_none	349.475018864989	69	5	12	10	n/a	n/a	n/a	n/a	n/a	n/a	n/a	n/a	2000	0	BLOCKED	n/a	n/a	+	0	alert	At this moment	3	1	6	209	NONE	n/a	0	530.249127063347	0.288554422365762	-1.91297670183884e-05	9.96059982707961	1050.86891385768	0	418.303601444278	2.04714275291288	-0.001104357759801	52.5945503521448	1235.41660261337	2	1	0	1	0	1	0
350.459149347305	6.02157767795023	panas_none	356.480727025256	70	5	12	10	n/a	n/a	n/a	n/a	n/a	n/a	n/a	n/a	2000	0	BLOCKED	n/a	n/a	+	0	proud	At this moment	3	1	6	209	NONE	n/a	0.404494382022472	n/a	n/a	n/a	n/a	805.647798742138	0	1023.58066410513	-0.179906756782361	2.1338516681308e-05	15.5474725838088	888.448116833205	6	2	0	1	0	1	0
357.464749959454	6.02165137484667	panas_none	363.486401334301	71	5	12	10	n/a	n/a	n/a	n/a	n/a	n/a	n/a	n/a	2000	0	BLOCKED	n/a	n/a	+	0	scared	At this moment	1	1	6	209	NONE	n/a	0	612.474398613841	-0.245960756324392	0.000198851636236181	6.860377045958	983.830212234707	0	809.954956085489	0.0856590268819468	-8.47482878731108e-05	14.9218052745727	809.591852421214	4	3	0	1	0	1	0
364.470530053526	12.5269159432203	panas_none	376.997445996746	72	5	12	10	n/a	n/a	n/a	n/a	n/a	n/a	n/a	n/a	2000	0	BLOCKED	n/a	n/a	+	0	distressed	At this moment	4	1	6	209	NONE	n/a	0.374531835205993	n/a	n/a	n/a	n/a	2432.10179640719	0.471944657955419	n/a	n/a	n/a	n/a	2398.04512372635	10	4	0	1	0	1	0
377.998165334955	2.51875780165193	reward_vlpfc	380.516923136607	73	2	13	10	0	0	0	0	250	250	250	750	2000	0	BLOCKED	0.75	-1	1	1	strong	At this moment	4	1	6	209	VLPFC	873.539285033941	0	16072.1953863801	-12.847230590388	0.00283211569349603	20.6932133401333	1724.1822721598	0	661.947865837622	1.77172862648149	-0.000520917766304511	19.3719318595758	1727.64335126826	0	1	1	0	0	0	0
381.500967933044	2.51879271069168	reward_vlpfc	384.019760643736	74	2	13	10	0	0	0	0	250	250	250	750	2000	0	BLOCKED	0.75	-1	4	1	afraid	At this moment	3	1	6	209	VLPFC	1207.8612382412	0	10430.85246873	-8.03358793401546	0.00179189398680236	33.4350387958832	1558.07365792759	0	1162.5817322779	0.945312728945887	-0.000324102075706833	17.2522914965989	1686.54189085319	0	2	1	0	0	0	0
385.003936260998	2.51869574108719	reward_vlpfc	387.522632002085	75	2	13	10	0	0	0	0	250	250	250	750	2000	0	BLOCKED	0.75	1	9	1	upset	At this moment	2	1	6	209	VLPFC	940.834432318807	0	11494.3898824026	-9.43498710038466	0.00218226210269736	42.9349900295216	1421.3570536829	0	839.233745714564	0.804206787341066	-0.000198275163157644	16.9689046037505	1351.50960799385	0	3	1	0	0	0	0
388.506746616647	2.51867846286297	reward_vlpfc	391.02542507951	76	2	13	10	0	0	0	0	250	250	250	750	2000	0	BLOCKED	0.75	1	6	1	alert	At this moment	2	1	6	209	VLPFC	1039.98744684458	0.374531835205993	n/a	n/a	n/a	n/a	1346.22954091816	0	708.269987604386	0.94158356061864	-0.000305931522473498	21.1161742298179	1244.7048424289	1	4	1	0	0	0	0
392.009505490243	2.51899969676134	reward_vlpfc	394.528505187005	77	2	13	10	0	0	0	0	250	250	250	750	2000	0	BLOCKED	0.75	-1	8	-1	enthusiastic	At this moment	5	1	6	209	VLPFC	906.863685414195	0.66541822721598	n/a	n/a	n/a	n/a	1012.9552238806	0	924.029796704179	0.559141198589385	-0.000293490345813483	18.9677885347397	1146.71252882398	1	5	1	0	0	0	0
395.512427978024	2.5187461653054	reward_vlpfc	398.031174143329	78	2	13	10	0	0	0	0	250	250	250	750	2000	0	BLOCKED	0.75	1	7	1	jittery	At this moment	2	1	6	209	VLPFC	607.658836215734	0	10019.8850483325	-7.92282454598988	0.00174197660992139	45.9101725189207	1157.22971285893	0	853.352665472386	0.501572649758375	-0.000103193101955512	13.2694252930661	1191.2951575711	0	6	1	0	0	0	0
399.015368801877	2.51863650147618	reward_vlpfc	401.534005303353	79	2	13	10	0	0	0	0	250	250	250	750	2000	0	BLOCKED	0.75	1	7	1	attentive	At this moment	4	1	6	209	VLPFC	406.236027568579	0	6455.47820755174	-5.01734754315528	0.00112767289004809	38.1106026293148	952.207240948814	0	663.151748935836	0.488399884317967	-0.000127375952906932	9.71559719729614	968.335126825519	0	7	1	0	0	0	0
402.518059973061	2.51873135539887	reward_vlpfc	405.03679132846	80	2	13	10	0	0	0	0	250	250	250	750	2000	0	BLOCKED	0.75	-1	10	-1	excited	At this moment	3	1	6	209	VLPFC	540.56044909358	0.845193508114856	n/a	n/a	n/a	n/a	841.725806451613	0.693312836279785	n/a	n/a	n/a	n/a	648.942355889724	5	8	1	0	0	0	0
406.037783944651	6.02141617946324	panas_none	412.059200124115	81	5	14	10	n/a	n/a	n/a	n/a	n/a	n/a	n/a	n/a	2000	0	BLOCKED	n/a	n/a	+	0	afraid	At this moment	1	1	6	209	NONE	n/a	0.252184769038702	n/a	n/a	n/a	n/a	1140.95659432387	0.259800153727902	n/a	n/a	n/a	n/a	818.097611630322	7	1	0	1	0	1	1
413.043324964553	6.02159671926501	panas_none	419.064921683818	82	5	14	10	n/a	n/a	n/a	n/a	n/a	n/a	n/a	n/a	2000	0	BLOCKED	n/a	n/a	+	0	nervous	At this moment	1	1	6	209	NONE	n/a	0	-144.263248151791	1.40976904403043	-0.00033792784067585	9.30190477651965	1308.03995006242	0	1588.51540254943	-0.808595759405329	0.000419592440599082	27.0085740857193	1263.84473481937	1	2	0	1	0	1	1
420.049072265282	6.0215960140228	panas_none	426.070668279305	83	5	14	10	n/a	n/a	n/a	n/a	n/a	n/a	n/a	n/a	2000	0	BLOCKED	n/a	n/a	+	0	attentive	At this moment	3	1	6	209	NONE	n/a	0	1450.66389669978	-0.59495230468207	0.000133310356527241	5.2167263407542	796.449438202247	0	856.540962407962	0.479923798311129	-0.000322437688141194	18.0583212967064	987.197540353574	4	3	0	1	0	1	1
427.054616458744	11.0591324216873	panas_none	438.113748880431	84	5	14	10	n/a	n/a	n/a	n/a	n/a	n/a	n/a	n/a	2000	0	BLOCKED	n/a	n/a	+	0	guilty	At this moment	5	1	6	209	NONE	n/a	0.742821473158552	n/a	n/a	n/a	n/a	1499.30097087379	0	1298.76168381373	0.719321064517983	-0.000234966383624391	10.5620108000663	1717.12990007686	17	4	0	1	0	1	1
439.097756299496	2.51880434706806	reward_vlpfc	441.616560646564	85	2	15	10	0	0	0	0	250	250	250	750	2000	0	BLOCKED	0.75	-1	4	1	interested	At this moment	1	1	6	209	VLPFC	1490.60805235803	0.217228464419476	-8035.84709141151	9.06228933020719	-0.0021740817063729	58.7153205811184	1314.2009569378	0.696387394312068	n/a	n/a	n/a	n/a	917.66835443038	1	1	1	0	0	0	0
442.600727095783	2.51867634716632	reward_vlpfc	445.119403442949	86	2	15	10	0	0	0	0	250	250	250	750	2000	0	BLOCKED	0.75	1	8	1	ashamed	At this moment	5	1	6	209	VLPFC	1041.35066327453	0	20943.9088463088	-17.8696961578676	0.00407422531717501	36.0208152647725	1584.60674157303	0.230591852421214	1113.72909505896	0.968769873383994	-0.000266142280889078	11.945903968511	1791.04395604396	1	2	1	0	0	0	0
446.103549440399	2.51869926725328	reward_vlpfc	448.622248707652	87	2	15	10	0	0	0	0	250	250	250	750	2000	0	BLOCKED	0.75	-1	0	1	jittery	At this moment	2	1	6	209	VLPFC	990.828437834978	0	14378.0161925395	-12.0683709592516	0.00284655905309961	40.8361358286985	1738.93757802747	0	1189.82418708021	0.726230896799984	-0.000113835621851488	50.0694069560925	1709.09223674097	0	3	1	0	0	0	0
449.606374253333	2.51872253996135	reward_vlpfc	452.125096793294	88	2	15	10	0	0	0	0	250	250	250	750	2000	0	BLOCKED	0.75	1	7	1	guilty	At this moment	5	1	6	209	VLPFC	823.631670624018	0	13106.4226874508	-11.0377765593053	0.00253493696201405	31.6594100178177	1240.41573033708	0	1123.74321955357	1.05875736598912	-0.000498461487935881	35.1083807168396	1593.29823212913	0	4	1	0	0	0	0
453.109234680563	2.51874969145661	reward_vlpfc	455.62798437202	89	2	15	10	0	0	0	0	250	250	250	750	2000	0	BLOCKED	0.75	1	8	1	active	At this moment	3	1	6	209	VLPFC	906.729691043496	0	16835.3143166248	-14.4544709073651	0.00333782664001461	39.0863466447976	1377.55305867665	0	880.390583337617	0.842408527866222	-0.000184250516986896	19.6427330068786	1438.34127594158	1	5	1	0	0	0	0
456.612144121528	2.51861781278257	reward_vlpfc	459.13076193431	90	2	15	10	0	0	0	0	250	250	250	750	2000	0	BLOCKED	0.75	-1	6	-1	interested	At this moment	4	1	6	209	VLPFC	573.209588348866	0.752808988764045	n/a	n/a	n/a	n/a	1288.89393939394	0	702.14768767446	0.948078040411268	-0.000422704053787918	26.7398919704861	1143.76787086856	4	6	1	0	0	0	0
460.114843050286	2.51917741559441	reward_vlpfc	462.634020465881	91	2	15	10	0	0	0	0	250	250	250	750	2000	0	BLOCKED	0.75	-1	8	-1	excited	At this moment	1	1	6	209	VLPFC	891.112294331193	0.598002496878901	n/a	n/a	n/a	n/a	777.919254658385	0	663.702292900078	0.433866082923457	-0.000221350820029036	28.7779309553458	842.398155265181	2	7	1	0	0	0	0
463.617746849373	2.51874017080667	reward_vlpfc	466.13648702018	92	2	15	10	0	0	0	0	250	250	250	750	2000	0	BLOCKED	0.75	-1	0	1	afraid	At this moment	1	1	6	209	VLPFC	423.090051278472	1	n/a	n/a	n/a	n/a	n/a	1	n/a	n/a	n/a	n/a	n/a	5	8	1	0	0	0	0
467.137325542867	6.02148599757254	panas_none	473.15881154044	93	5	16	10	n/a	n/a	n/a	n/a	n/a	n/a	n/a	n/a	2000	0	BLOCKED	n/a	n/a	+	0	determined	At this moment	3	1	6	209	NONE	n/a	1	n/a	n/a	n/a	n/a	n/a	1	n/a	n/a	n/a	n/a	n/a	6	1	0	1	0	1	1
474.143421228945	6.02118521547317	panas_none	480.164606444418	94	5	16	10	n/a	n/a	n/a	n/a	n/a	n/a	n/a	n/a	2000	0	BLOCKED	n/a	n/a	+	0	strong	At this moment	4	1	6	209	NONE	n/a	0	529.441518025783	-0.0704821080570171	0.000134503509084435	21.6150112580524	981.80024968789	0.432744043043812	n/a	n/a	n/a	n/a	796.318428184282	3	2	0	1	0	1	1
481.148623736754	6.02175715988875	panas_none	487.170380896643	95	5	16	10	n/a	n/a	n/a	n/a	n/a	n/a	n/a	n/a	2000	0	BLOCKED	n/a	n/a	+	0	irritable	At this moment	3	1	6	209	NONE	n/a	0.523096129837703	n/a	n/a	n/a	n/a	709.05497382199	0	739.188390235827	-0.208864141943927	0.000171710701214336	15.8932938681817	709.743274404304	2	3	0	1	0	1	1
488.154380910739	5.3376287932694	panas_none	493.492009704009	96	5	16	10	n/a	n/a	n/a	n/a	n/a	n/a	n/a	n/a	2000	0	BLOCKED	n/a	n/a	+	0	interested	At this moment	2	1	6	209	NONE	n/a	0.380774032459426	n/a	n/a	n/a	n/a	2169.82459677419	0.403535741737125	n/a	n/a	n/a	n/a	1832.83118556701	9	4	0	1	0	1	1
