onset	duration	trial_type	offset	trial	block	blockCntr	frequency	amplitude_1	amplitude_2	amplitude_3	amplitude_4	amplitude_5	amplitude_6	amplitude_7	amplitude_8	transition	sham	mode	rewardFraction	guess	outcome	correct	word	when	answer	runNr	scanNr	subjectNr	target	reactionTime	outcomeEyeClosed	outcomeParms_1	outcomeParms_2	outcomeParms_3	outcomeSigma	outcomePupilArea	guessEyeClosed	guessParms_1	guessParms_2	guessParms_3	guessSigma	guessPupilArea	nrBlinks	trialInBlock	isReward	isPanas	isPunish	beforePanasReward	beforePanasVLPFC
20.1983744366914	2.50896704442799	reward_rtpj	22.7073414811194	1	1	1	10	750	250	250	250	0	0	0	0	2000	0	BLOCKED	0.75	1	8	1	hostile	At this moment	5	3	12	209	RTPJ	1247.80108183622	0.421972534332085	n/a	n/a	n/a	n/a	1935.25269978402	0.230591852421214	2732.46049897652	-1.96246250347706	0.00114699997954592	39.4235734749925	2074.93406593407	2	1	1	0	0	0	0
23.6914684372693	2.51870138296485	reward_rtpj	26.2101698202342	2	1	1	10	750	250	250	250	0	0	0	0	2000	0	BLOCKED	0.75	1	0	-1	proud	At this moment	1	3	12	209	RTPJ	1190.72018449008	0.757802746566791	n/a	n/a	n/a	n/a	2507.1030927835	0.230591852421214	1631.55006155804	1.21893848834777	-0.000363530198919192	14.1142636618344	2429.93106893107	2	2	1	0	0	0	0
27.1942287213355	2.51873664464057	reward_rtpj	29.7129653659761	3	1	1	10	750	250	250	250	0	0	0	0	2000	0	BLOCKED	0.75	-1	9	-1	inspired	At this moment	5	3	12	209	RTPJ	590.71136906743	0	2519.99980945748	0.154465487799129	-0.000105358146194718	34.1311105059275	2374.10986267166	0	1410.11937373837	1.23100910681842	-0.000362645560751543	17.8178543893767	2143.71944657955	0	3	1	0	0	0	0
30.6974371813238	2.51848522888124	reward_rtpj	33.215922410205	4	1	1	10	750	250	250	250	0	0	0	0	2000	0	BLOCKED	0.75	1	6	1	jittery	At this moment	1	3	12	209	RTPJ	1006.87673223019	0	16520.9726972266	-13.9980781152934	0.00322668870750964	54.6053101248452	1523.30586766542	0	1233.18066886707	1.03891917915478	-0.000335034312246046	14.6389487171892	1825.74019984627	0	4	1	0	0	0	0
34.2166925252378	2.51871442978084	reward_rtpj	36.7354069550186	5	1	1	10	750	250	250	250	0	0	0	0	2000	0	BLOCKED	0.75	1	10	1	active	At this moment	1	3	12	209	RTPJ	1125.52099126577	0.374531835205993	n/a	n/a	n/a	n/a	1446.93812375249	0	695.387164055221	1.1304450344577	-0.000315856756108274	38.7679854270686	1384.87548039969	1	5	1	0	0	0	0
37.7194210737944	2.51884525059164	reward_rtpj	40.238266324386	6	1	1	10	750	250	250	250	0	0	0	0	2000	0	BLOCKED	0.75	-1	2	1	proud	At this moment	5	3	12	209	RTPJ	790.025176823139	0	14891.6964907812	-12.1330002973373	0.00270577233038417	63.2068494088713	1489.13358302122	0.240584166026134	634.037645285943	1.97608500709439	-0.000811417236678021	20.4899645222764	1696.09311740891	1	6	1	0	0	0	0
41.2222994844764	2.5188184517324	reward_rtpj	43.7411179362088	7	1	1	10	750	250	250	250	0	0	0	0	2000	0	BLOCKED	0.75	-1	1	1	afraid	At this moment	3	3	12	209	RTPJ	707.431751027703	0	19786.0375203195	-16.7397820801742	0.00381766685135321	52.9709042094098	1671.56304619226	0	1187.89054774548	0.804788518720563	-9.30976460968994e-05	13.8862212719167	1784.98385857033	0	7	1	0	0	0	0
44.7419377702028	2.51864284856618	reward_rtpj	47.2605806187689	8	1	1	10	750	250	250	250	0	0	0	0	2000	0	BLOCKED	0.75	1	7	1	alert	At this moment	2	3	12	209	RTPJ	590.658123925328	0	21011.2886902442	-18.2074022584522	0.00422998611315745	55.8208228039154	1655.01997503121	0	1014.63471127295	1.24537040009741	-0.000385764012088556	34.3257050545977	1741.21445042275	0	8	1	0	0	0	0
48.2613528494984	6.02162457597255	panas_none	54.2829774254709	9	5	2	10	n/a	n/a	n/a	n/a	n/a	n/a	n/a	n/a	2000	0	BLOCKED	n/a	n/a	+	0	inspired	At this moment	5	3	12	209	NONE	n/a	0	-3105.5751481865	3.73732321399607	-0.000751593422736053	11.2219457362451	1388.59550561798	0.0968485780169101	784.575711007319	1.46654628971051	-0.000913981526682298	77.6141016183947	1267.29957446809	1	1	0	1	0	1	0
55.2671001502126	6.02163480186462	panas_none	61.2887349520773	10	5	2	10	n/a	n/a	n/a	n/a	n/a	n/a	n/a	n/a	2000	0	BLOCKED	n/a	n/a	+	0	strong	At this moment	4	3	12	209	NONE	n/a	0.0187265917602996	-3024.75903927309	4.03296479854885	-0.000861402996670476	36.312113092451	1599.30407124682	0	1430.84566173207	0.15470930825351	-5.6020391122046e-05	39.4354801416511	1513.96541122214	2	2	0	1	0	1	0
62.2727540074885	6.02174446567894	panas_none	68.2944984731674	11	5	2	10	n/a	n/a	n/a	n/a	n/a	n/a	n/a	n/a	2000	0	BLOCKED	n/a	n/a	+	0	distressed	At this moment	3	3	12	209	NONE	n/a	0	-1723.89060904978	2.99743137433948	-0.000666424656326915	14.9021498051111	1596.18352059925	0	1732.79058114748	-0.431549717435795	0.000188854251167664	11.5304518443072	1528.92928516526	5	3	0	1	0	1	0
69.2785235230625	11.2758178945929	panas_none	80.5543414176554	12	5	2	10	n/a	n/a	n/a	n/a	n/a	n/a	n/a	n/a	2000	0	BLOCKED	n/a	n/a	+	0	scared	At this moment	3	3	12	209	NONE	n/a	0.760299625468165	n/a	n/a	n/a	n/a	2067.82291666667	0.230591852421214	940.285383107408	0.888826304469587	-0.000231465560138558	20.5764014268505	1448.63736263736	9	4	0	1	0	1	0
81.5384881203473	2.51877895864844	punish_rtpj	84.0572670789957	13	3	3	10	750	250	250	250	0	0	0	0	2000	0	BLOCKED	0.25	1	1	-1	guilty	At this moment	4	3	12	209	RTPJ	773.379549622536	0.374531835205993	n/a	n/a	n/a	n/a	2098.30538922156	0	502.011875793226	2.110156272019	-0.000746794738269742	8.50519235155714	1667.32436587241	1	1	0	0	1	0	0
85.0412431151569	2.51880575752259	punish_rtpj	87.5600488726795	14	3	3	10	750	250	250	250	0	0	0	0	2000	0	BLOCKED	0.25	1	0	-1	attentive	At this moment	1	3	12	209	RTPJ	706.624258622527	0.737827715355805	n/a	n/a	n/a	n/a	2088.95714285714	0	1440.9526150346	0.947464268255776	-0.000240104399659183	16.7226545818208	2038.20830130669	1	2	0	0	1	0	0
88.5441701869518	2.51872289259731	punish_rtpj	91.0628930795491	15	3	3	10	750	250	250	250	0	0	0	0	2000	0	BLOCKED	0.25	1	3	-1	alert	At this moment	5	3	12	209	RTPJ	640.133430197835	0	4997.56889782737	-2.49364201233755	0.000592775804331322	38.1037786056537	2404.51310861423	0	1307.17063012073	1.15024030843832	-0.000267926193199087	40.5983961300375	2054.58570330515	0	3	0	0	1	0	0
92.0470136885792	2.51870843529701	punish_rtpj	94.5657221238762	16	3	3	10	750	250	250	250	0	0	0	0	2000	0	BLOCKED	0.25	1	4	-1	nervous	At this moment	1	3	12	209	RTPJ	573.319252178073	0	7105.49064797015	-4.89442556369874	0.00117430186199569	50.6922726234916	2069.26716604245	0	1126.11135019465	0.971284642222166	-0.000243997170275139	30.0644515109672	1741.91314373559	1	4	0	0	1	0	0
95.549864947781	2.51866541604699	punish_rtpj	98.0685303638279	17	3	3	10	750	250	250	250	0	0	0	0	2000	0	BLOCKED	0.25	1	8	1	enthusiastic	At this moment	2	3	12	209	RTPJ	540.215589880943	0	21122.0124155982	-17.3550321250996	0.00382584862088741	55.9391880866023	1742.97253433208	0	1325.70091108533	0.867120046541337	-0.000138518369899953	18.5930913602191	1942.62182936203	0	5	0	0	1	0	0
99.0526329894215	2.51885371340812	punish_rtpj	101.57148670283	18	3	3	10	750	250	250	250	0	0	0	0	2000	0	BLOCKED	0.25	1	3	-1	guilty	At this moment	3	3	12	209	RTPJ	556.996974527836	0.374531835205993	n/a	n/a	n/a	n/a	2011.09181636727	0	1083.20395652066	1.22578150816022	-0.000504457052694803	44.2880642051322	1689.27286702537	1	6	0	0	1	0	0
102.572260344014	2.51873311847449	punish_rtpj	105.090993462488	19	3	3	10	750	250	250	250	0	0	0	0	2000	0	BLOCKED	0.25	1	8	1	excited	At this moment	3	3	12	209	RTPJ	657.080544710159	0.374531835205993	n/a	n/a	n/a	n/a	1802.88223552894	0.230591852421214	546.14055138074	1.76849545314495	-0.000523418416766931	31.2661041739064	1707.56943056943	2	7	0	0	1	0	0
106.075106313959	2.51867176315187	punish_rtpj	108.593778077111	20	3	3	10	750	250	250	250	0	0	0	0	2000	0	BLOCKED	0.25	1	2	-1	scared	At this moment	1	3	12	209	RTPJ	723.892607033253	0.374531835205993	n/a	n/a	n/a	n/a	1926.72055888224	0	1360.14260196192	0.748219662851587	-0.000245959629357493	22.357036226783	1757.54573405073	1	8	0	0	1	0	0
109.594615189329	6.02161646579206	panas_none	115.616231655121	21	5	4	10	n/a	n/a	n/a	n/a	n/a	n/a	n/a	n/a	2000	0	BLOCKED	n/a	n/a	+	0	inspired	At this moment	3	3	12	209	NONE	n/a	0	-987.69990570136	1.75405549078985	-0.000285199513878513	13.6986941104273	1423.08489388265	0	739.24223368221	0.742258894934915	-0.000371078542808413	54.9223329607188	1078.18831667948	1	1	0	1	0	0	0
116.617037737057	6.02148282402753	panas_none	122.638520561084	22	5	4	10	n/a	n/a	n/a	n/a	n/a	n/a	n/a	n/a	2000	0	BLOCKED	n/a	n/a	+	0	nervous	At this moment	1	3	12	209	NONE	n/a	0.280898876404494	n/a	n/a	n/a	n/a	1309.67361111111	0	1387.67953450648	-0.267480040637831	0.000103034391967507	24.5800087941967	1248.8570330515	7	2	0	1	0	0	0
123.622709225163	6.02154241627456	panas_none	129.644251641437	23	5	4	10	n/a	n/a	n/a	n/a	n/a	n/a	n/a	n/a	2000	0	BLOCKED	n/a	n/a	+	0	distressed	At this moment	2	3	12	209	NONE	n/a	0	1817.64207087277	-0.709747245370635	0.000227080420687376	13.5179889268027	1340.72284644195	0	1617.67786408432	-0.361268981589095	9.56970522345419e-05	25.0729950919611	1392.07993850884	0	3	0	1	0	0	0
130.628277749181	6.57217042674125	panas_none	137.200448175922	24	5	4	10	n/a	n/a	n/a	n/a	n/a	n/a	n/a	n/a	2000	0	BLOCKED	n/a	n/a	+	0	ashamed	At this moment	1	3	12	209	NONE	n/a	0.143570536828964	-28311.7629378644	26.8819013419126	-0.00600066855122403	94.6934953280346	1496.0306122449	0.767102229054573	n/a	n/a	n/a	n/a	1242.61386138614	6	4	0	1	0	0	0
138.201271183446	2.51864179074767	reward_vlpfc	140.719912974194	25	2	5	10	0	0	0	0	250	250	250	750	2000	0	BLOCKED	0.75	1	8	1	guilty	At this moment	2	3	12	209	VLPFC	773.357687398791	0.508114856429463	n/a	n/a	n/a	n/a	1767.16497461929	0	1161.4637876366	1.2494052479017	-0.000323575791563809	30.3518037137365	1870.14834742506	1	1	1	0	0	0	0
141.703948249966	2.51871689809857	reward_vlpfc	144.222665148064	26	2	5	10	0	0	0	0	250	250	250	750	2000	0	BLOCKED	0.75	-1	4	1	interested	At this moment	5	3	12	209	VLPFC	541.030487239361	0	19266.6988735348	-15.9408050838843	0.00360028147367228	40.2606102483853	1841.48938826467	0	1174.26833773938	1.8178098543477	-0.000789746963949842	41.9514175639243	2039.9239046887	0	2	1	0	0	0	0
145.223652122408	2.51863720670343	reward_vlpfc	147.742289329112	27	2	5	10	0	0	0	0	250	250	250	750	2000	0	BLOCKED	0.75	-1	0	1	inspired	At this moment	1	3	12	209	VLPFC	957.227233290672	0	16667.6761139649	-14.2387748860724	0.00329959816775574	52.2140705038638	1493.43695380774	0	1048.00239222802	1.20364749117032	-0.000453253574086858	24.063446410834	1679.99308224443	0	3	1	0	0	0	0
148.726399712265	2.51872077688574	reward_vlpfc	151.24512048915	28	2	5	10	0	0	0	0	250	250	250	750	2000	0	BLOCKED	0.75	1	9	1	active	At this moment	3	3	12	209	VLPFC	539.938080489635	0.480649188514357	n/a	n/a	n/a	n/a	1436.97836538462	0	793.773610764851	0.790693073453392	-0.000132444194706924	23.083468839132	1351.67486548809	3	4	1	0	0	0	0
152.245825370073	2.51881739386917	reward_vlpfc	154.764642763942	29	2	5	10	0	0	0	0	250	250	250	750	2000	0	BLOCKED	0.75	-1	1	1	irritable	At this moment	1	3	12	209	VLPFC	690.60064740479	0	19816.5059739827	-16.9128546262018	0.00390417867029416	63.1422073674193	1724.5468164794	0	1196.36457381043	0.80587487790403	-0.000132142801359286	21.584308346797	1767.27517294389	0	5	1	0	0	0	0
155.748715417102	2.51882233051955	reward_vlpfc	158.267537747622	30	2	5	10	0	0	0	0	250	250	250	750	2000	0	BLOCKED	0.75	1	0	-1	determined	At this moment	4	3	12	209	VLPFC	756.855575218797	0	3942.7149605868	-2.00519195338693	0.000567204293831067	110.758517517252	2243.27215980025	0	1213.58422175351	1.23047201722122	-0.00041107231386454	8.53374277966197	1904.73481936972	0	6	1	0	0	0	0
159.251669993028	2.51865906892718	reward_vlpfc	161.770329061955	31	2	5	10	0	0	0	0	250	250	250	750	2000	0	BLOCKED	0.75	1	10	1	nervous	At this moment	5	3	12	209	VLPFC	1006.64506299794	0	20541.93819442	-17.7495313310616	0.00409918692625017	57.8472125095017	1564.24594257179	0	840.78276280938	1.64280278258885	-0.000574802807992738	20.4741218626316	1755.86779400461	0	7	1	0	0	0	0
162.754373505771	2.51884172445537	reward_vlpfc	165.273215230227	32	2	5	10	0	0	0	0	250	250	250	750	2000	0	BLOCKED	0.75	-1	7	-1	active	At this moment	2	3	12	209	VLPFC	790.36192587018	0.374531835205993	n/a	n/a	n/a	n/a	1894.63672654691	0	677.938249908121	1.58329642214232	-0.000529148854438005	23.0861592088265	1574.44427363566	1	8	1	0	0	0	0
166.273941973373	6.02174058690667	panas_none	172.29568256028	33	5	6	10	n/a	n/a	n/a	n/a	n/a	n/a	n/a	n/a	2000	0	BLOCKED	n/a	n/a	+	0	enthusiastic	At this moment	4	3	12	209	NONE	n/a	0.435705368289638	n/a	n/a	n/a	n/a	1372.5907079646	0	730.615877161682	0.774828271372136	-0.000358019084211904	88.5293357616441	1094.26594926979	5	1	0	1	0	1	1
173.279707610175	6.02181675210593	panas_none	179.301524362281	34	5	6	10	n/a	n/a	n/a	n/a	n/a	n/a	n/a	n/a	2000	0	BLOCKED	n/a	n/a	+	0	excited	At this moment	4	3	12	209	NONE	n/a	0.337078651685393	n/a	n/a	n/a	n/a	2088.87193973635	0	1623.82135100543	-0.223061009731805	0.000293149410219821	21.3300503929176	1636.74865488086	2	2	0	1	0	1	1
180.285397434354	6.02157662010194	panas_none	186.306974054456	35	5	6	10	n/a	n/a	n/a	n/a	n/a	n/a	n/a	n/a	2000	0	BLOCKED	n/a	n/a	+	0	proud	At this moment	2	3	12	209	NONE	n/a	0	-602.035097443862	1.82869598667918	-0.000328465250805746	16.5086932586852	1772.76029962547	0.263643351268255	n/a	n/a	n/a	n/a	1541.14091858038	4	3	0	1	0	1	1
187.290981473505	6.73890350289642	panas_none	194.029884976402	36	5	6	10	n/a	n/a	n/a	n/a	n/a	n/a	n/a	n/a	2000	0	BLOCKED	n/a	n/a	+	0	alert	At this moment	5	3	12	209	NONE	n/a	0	3040.61419597958	-0.939306824143384	0.000242257003832218	22.2926273572757	2149.47940074906	0.230591852421214	1486.38109220311	0.907727812675851	-0.000258768434652393	27.4482307019044	2057.49450549451	3	4	0	1	0	1	1
195.014036263093	2.51867141056061	punish_vlpfc	197.532707673654	37	4	7	10	0	0	0	0	250	250	250	750	2000	0	BLOCKED	0.25	1	4	-1	enthusiastic	At this moment	2	3	12	209	VLPFC	1073.6158028841	0.383270911360799	n/a	n/a	n/a	n/a	1775.2044534413	0.498078401229823	n/a	n/a	n/a	n/a	1513.49004594181	3	1	0	0	1	0	0
198.516754233152	2.51875603857636	punish_vlpfc	201.035510271728	38	4	7	10	0	0	0	0	250	250	250	750	2000	0	BLOCKED	0.25	1	6	1	excited	At this moment	2	3	12	209	VLPFC	1190.6553030163	0	19816.5679770993	-16.6737161767114	0.00376391408381004	29.7327466052229	1575.24968789014	0.255188316679477	n/a	n/a	n/a	n/a	1991.64086687307	1	2	0	0	1	0	0
202.020022637993	2.5184020113349	punish_vlpfc	204.538424649328	39	4	7	10	0	0	0	0	250	250	250	750	2000	0	BLOCKED	0.25	-1	7	-1	determined	At this moment	2	3	12	209	VLPFC	673.052321270108	0.622971285892634	n/a	n/a	n/a	n/a	2037.58940397351	0.231360491929285	1147.20455945316	1.16563321465028	-0.000544456759438343	59.4086877693398	1651.772	5	3	0	0	1	0	0
205.522590745926	2.51871478240193	punish_vlpfc	208.041305528328	40	4	7	10	0	0	0	0	250	250	250	750	2000	0	BLOCKED	0.25	1	4	-1	attentive	At this moment	5	3	12	209	VLPFC	256.740974783897	0	4317.32253612544	-2.22066818039422	0.000478717817036286	24.459676296188	1790.40074906367	0	1041.21777037308	1.34709839742151	-0.000533387839426133	48.1025551314774	1669.75634127594	0	4	0	0	1	0	0
209.025359140173	2.5187761377245	punish_vlpfc	211.544135277897	41	4	7	10	0	0	0	0	250	250	250	750	2000	0	BLOCKED	0.25	-1	7	-1	ashamed	At this moment	5	3	12	209	VLPFC	373.126018181443	0.580524344569288	n/a	n/a	n/a	n/a	1142.00892857143	0	1022.78898553613	0.0500715653694046	-4.27996822416352e-05	15.5736722860783	1030.30591852421	2	5	0	0	1	0	0
212.544824291065	2.51891788965463	punish_vlpfc	215.06374218072	42	4	7	10	0	0	0	0	250	250	250	750	2000	0	BLOCKED	0.25	1	0	-1	excited	At this moment	3	3	12	209	VLPFC	990.706785053015	0.871410736579276	n/a	n/a	n/a	n/a	1236.54368932039	0.255188316679477	n/a	n/a	n/a	n/a	1543.46646026832	5	6	0	0	1	0	0
216.047788387626	2.51881880433857	punish_vlpfc	218.566607191965	43	4	7	10	0	0	0	0	250	250	250	750	2000	0	BLOCKED	0.25	-1	0	1	distressed	At this moment	5	3	12	209	VLPFC	639.791039302945	0	19458.3452222999	-16.3529701256491	0.00374264383209638	51.5593343893649	1820.83770287141	0	1387.3025086056	0.927050151107206	-0.000233198746773765	9.50218266806465	1973.51960030746	0	7	0	0	1	0	0
219.550658335507	2.51878389528395	punish_vlpfc	222.069442230791	44	4	7	10	0	0	0	0	250	250	250	750	2000	0	BLOCKED	0.25	1	4	-1	determined	At this moment	2	3	12	209	VLPFC	873.648243606091	0	5961.7898488727	-4.11782226162534	0.000998210289311017	16.4505757828855	1770.05867665418	0.374327440430438	n/a	n/a	n/a	n/a	1564.89557739558	4	8	0	0	1	0	0
223.070071651727	6.02187246556582	panas_none	229.091944117293	45	5	8	10	n/a	n/a	n/a	n/a	n/a	n/a	n/a	n/a	2000	0	BLOCKED	n/a	n/a	+	0	nervous	At this moment	2	3	12	209	NONE	n/a	0	828.194648015016	0.092399605072753	6.41935036146172e-05	59.8031315558914	1240.23595505618	0	536.930539085998	1.5899267087094	-0.000850894854341472	57.9761520143714	1183.31591083782	4	1	0	1	0	0	1
230.092552028611	6.02191019555926	panas_none	236.114462224171	46	5	8	10	n/a	n/a	n/a	n/a	n/a	n/a	n/a	n/a	2000	0	BLOCKED	n/a	n/a	+	0	irritable	At this moment	2	3	12	209	NONE	n/a	0	304.073692003495	1.31609397636488	-0.000279817576575028	13.1204489034182	1819.1797752809	0	2016.22237299037	0.0712557540869745	-8.22373068353677e-05	43.018815182776	2005.5142198309	0	2	0	1	0	0	1
237.098224574566	6.02156251542272	panas_none	243.119787089989	47	5	8	10	n/a	n/a	n/a	n/a	n/a	n/a	n/a	n/a	2000	0	BLOCKED	n/a	n/a	+	0	alert	At this moment	2	3	12	209	NONE	n/a	0	3148.53732298831	-1.68996974245002	0.000404301585801289	16.8057423469017	1404.25343320849	0	1794.857615638	-0.350180641380606	0.000124273431403808	30.3179487490236	1603.64873174481	8	3	0	1	0	0	1
244.10390170455	14.1615249264687	panas_none	258.265426631018	48	5	8	10	n/a	n/a	n/a	n/a	n/a	n/a	n/a	n/a	2000	0	BLOCKED	n/a	n/a	+	0	ashamed	At this moment	4	3	12	209	NONE	n/a	0.722846441947566	n/a	n/a	n/a	n/a	1346.24774774775	0.743274404304381	n/a	n/a	n/a	n/a	1178.40119760479	15	4	0	1	0	0	1
259.249924187392	2.51842316833142	punish_vlpfc	261.768347355723	49	4	9	10	0	0	0	0	250	250	250	750	2000	0	BLOCKED	0.25	1	0	-1	distressed	At this moment	2	3	12	209	VLPFC	956.419740900397	0.990012484394507	n/a	n/a	n/a	n/a	2169	0.407378939277479	n/a	n/a	n/a	n/a	1509.6757457847	8	1	0	0	1	0	0
262.752460207209	2.51870103032888	punish_vlpfc	265.271161237538	50	4	9	10	0	0	0	0	250	250	250	750	2000	0	BLOCKED	0.25	1	4	-1	interested	At this moment	5	3	12	209	VLPFC	539.863325715065	0.524344569288389	n/a	n/a	n/a	n/a	2008.31233595801	0.62336664104535	n/a	n/a	n/a	n/a	2401.77142857143	4	2	0	0	1	0	0
266.271797710806	2.51875885950028	punish_vlpfc	268.790556570306	51	4	9	10	0	0	0	0	250	250	250	750	2000	0	BLOCKED	0.25	1	6	1	irritable	At this moment	1	3	12	209	VLPFC	874.647559538484	0.375780274656679	n/a	n/a	n/a	n/a	2007.232	0.461183704842429	n/a	n/a	n/a	n/a	2414.5335235378	3	3	0	0	1	0	0
269.774716319799	2.51896584555504	punish_vlpfc	272.293682165354	52	4	9	10	0	0	0	0	250	250	250	750	2000	0	BLOCKED	0.25	1	4	-1	scared	At this moment	5	3	12	209	VLPFC	873.51671756804	0.571785268414482	n/a	n/a	n/a	n/a	2454.16034985423	0.271329746348962	n/a	n/a	n/a	n/a	2113.11075949367	3	4	0	0	1	0	0
273.277657143667	2.51867211575808	punish_vlpfc	275.796329259425	53	4	9	10	0	0	0	0	250	250	250	750	2000	0	BLOCKED	0.25	-1	10	-1	enthusiastic	At this moment	5	3	12	209	VLPFC	1123.69549424946	0.679151061173533	n/a	n/a	n/a	n/a	2339.59143968872	0.395849346656418	n/a	n/a	n/a	n/a	2501.85877862595	5	5	0	0	1	0	0
276.780399444267	2.51879694211482	punish_vlpfc	279.299196386382	54	4	9	10	0	0	0	0	250	250	250	750	2000	0	BLOCKED	0.25	-1	10	-1	excited	At this moment	2	3	12	209	VLPFC	574.281190723181	0	9876.66498384651	-7.37717272507424	0.00173223767290278	65.8936411169361	2056.64419475655	0	1613.55615964186	1.10252015104332	-0.000458169576063567	39.8722255158693	2156.58032282859	0	6	0	0	1	0	0
280.283246119454	2.51877507986131	punish_vlpfc	282.802021199316	55	4	9	10	0	0	0	0	250	250	250	750	2000	0	BLOCKED	0.25	1	10	1	irritable	At this moment	1	3	12	209	VLPFC	840.512140601873	0.374531835205993	n/a	n/a	n/a	n/a	1977.99001996008	0.282090699461952	n/a	n/a	n/a	n/a	1947.58672376874	3	7	0	0	1	0	0
283.786189059004	2.51867775763571	punish_vlpfc	286.30486681664	56	4	9	10	0	0	0	0	250	250	250	750	2000	0	BLOCKED	0.25	1	0	-1	alert	At this moment	3	3	12	209	VLPFC	940.652482062578	0	3897.6359454371	-1.78384625494662	0.000400703551038331	22.0202401593844	1940.24344569288	0.461183704842429	n/a	n/a	n/a	n/a	1849.02282453638	2	8	0	0	1	0	0
287.305669725016	6.02195145173368	panas_none	293.327621176749	57	5	10	10	n/a	n/a	n/a	n/a	n/a	n/a	n/a	n/a	2000	0	BLOCKED	n/a	n/a	+	0	guilty	At this moment	1	3	12	209	NONE	n/a	0.757802746566791	n/a	n/a	n/a	n/a	1203.97422680412	0	1077.72797826123	0.474410389893588	-0.000438422347776988	41.4529375179843	1110.65795541891	6	1	0	1	0	0	1
294.311439240605	6.02153042730691	panas_none	300.332969667912	58	5	10	10	n/a	n/a	n/a	n/a	n/a	n/a	n/a	n/a	2000	0	BLOCKED	n/a	n/a	+	0	determined	At this moment	2	3	12	209	NONE	n/a	0	5601.58837161212	-4.49685481789496	0.00109885321286706	8.20930849713973	1063.34456928839	0.255188316679477	n/a	n/a	n/a	n/a	1139.81320949432	4	2	0	1	0	0	1
301.317028569013	6.02161928671597	panas_none	307.338647855729	59	5	10	10	n/a	n/a	n/a	n/a	n/a	n/a	n/a	n/a	2000	0	BLOCKED	n/a	n/a	+	0	active	At this moment	2	3	12	209	NONE	n/a	0.348314606741573	n/a	n/a	n/a	n/a	1296.71647509579	0	2018.46099625079	-0.0669755749232823	-0.000218147761678009	24.8986728993279	1773.81245196003	2	3	0	1	0	0	1
308.322778690666	7.83962989343701	panas_none	316.162408584103	60	5	10	10	n/a	n/a	n/a	n/a	n/a	n/a	n/a	n/a	2000	0	BLOCKED	n/a	n/a	+	0	hostile	At this moment	5	3	12	209	NONE	n/a	0	2708.14666808106	-1.11769292828193	0.00027660581497896	9.23348915835087	1587.01373283396	0	642.234274102613	1.47045707970989	-0.000541194483082379	10.509824488406	1434.55880092237	0	4	0	1	0	0	1
317.146653314248	2.51877613770961	reward_rtpj	319.665429451957	61	1	11	10	750	250	250	250	0	0	0	0	2000	0	BLOCKED	0.75	-1	3	1	scared	At this moment	3	3	12	209	RTPJ	1457.17010937631	0	3521.09856919652	-1.74596086088404	0.000363649136179553	15.8709359775602	1463.20973782772	0.285165257494235	n/a	n/a	n/a	n/a	1036.36344086021	4	1	1	0	0	0	0
320.666159016058	2.51872782921788	reward_rtpj	323.184886845276	62	1	11	10	750	250	250	250	0	0	0	0	2000	0	BLOCKED	0.75	-1	2	1	nervous	At this moment	5	3	12	209	RTPJ	874.531196013093	0.868913857677903	n/a	n/a	n/a	n/a	2148.41904761905	0	1564.71181615081	1.0307528859848	-0.00049680621385191	107.333964489135	2009.06456571868	5	2	1	0	0	0	0
324.185602304712	2.51871654546261	reward_rtpj	326.704318850175	63	1	11	10	750	250	250	250	0	0	0	0	2000	0	BLOCKED	0.75	-1	3	1	interested	At this moment	1	3	12	209	RTPJ	758.983617410064	0	17057.1030232991	-14.2629542815863	0.00338073093807637	56.6223811965877	2190.822721598	0.230591852421214	1601.61583521329	1.03951103413578	-0.000365675939682989	17.433154646076	2209.1998001998	1	3	1	0	0	0	0
327.688513861373	2.51873946556452	reward_rtpj	330.207253326938	64	1	11	10	750	250	250	250	0	0	0	0	2000	0	BLOCKED	0.75	1	7	1	active	At this moment	2	3	12	209	RTPJ	1008.13945287466	0	20518.2452553097	-17.486045998326	0.00409251775339514	61.3542424675584	2057.15230961298	0	1081.28346015923	1.68269876923104	-0.000569411858799312	12.0339382410409	2033.18754803997	0	4	1	0	0	0	0
331.208079508036	2.51870349866152	reward_rtpj	333.726783006698	65	1	11	10	750	250	250	250	0	0	0	0	2000	0	BLOCKED	0.75	1	7	1	attentive	At this moment	4	3	12	209	RTPJ	839.904934510589	0	20744.3428568586	-17.8879570276961	0.00416907162184389	57.039114451883	1786.95006242197	0	1023.449634637	2.17852620256985	-0.0010149138715177	33.2380080071069	1986.13604919293	0	5	1	0	0	0	0
334.710823924348	2.51885970787703	reward_rtpj	337.229683632225	66	1	11	10	750	250	250	250	0	0	0	0	2000	0	BLOCKED	0.75	-1	9	-1	proud	At this moment	2	3	12	209	RTPJ	740.491688817739	0.620474406991261	n/a	n/a	n/a	n/a	2163.72697368421	0	1375.48087054704	1.27275572572042	-0.000527801392953677	45.5315044994034	2003.00691775557	3	6	1	0	0	0	0
338.23031763719	2.5188082258403	reward_rtpj	340.749125863031	67	1	11	10	750	250	250	250	0	0	0	0	2000	0	BLOCKED	0.75	1	0	-1	inspired	At this moment	5	3	12	209	RTPJ	773.978645518422	0.686641697877653	n/a	n/a	n/a	n/a	1888.49402390438	0	993.041582854355	1.39118248100972	-0.000450282259492457	18.2572662998876	1771.34742505765	1	7	1	0	0	0	0
341.733332863167	2.51864884306491	reward_rtpj	344.251981706232	68	1	11	10	750	250	250	250	0	0	0	0	2000	0	BLOCKED	0.75	1	8	1	alert	At this moment	1	3	12	209	RTPJ	373.686326235533	0.374531835205993	n/a	n/a	n/a	n/a	1771.08183632735	0	1184.5718195736	1.04520660012954	-0.000226179517502213	11.1292570795989	1877.26748654881	3	8	1	0	0	0	0
345.252717617437	6.02162246027586	panas_none	351.274340077713	69	5	12	10	n/a	n/a	n/a	n/a	n/a	n/a	n/a	n/a	2000	0	BLOCKED	n/a	n/a	+	0	afraid	At this moment	1	3	12	209	NONE	n/a	0.625468164794007	n/a	n/a	n/a	n/a	1160.62333333333	0	958.687574636798	0.399128355022591	-0.000192360466581082	71.1485507813569	1144.72713297463	8	1	0	1	0	1	0
352.275175426841	6.02151738047598	panas_none	358.296692807317	70	5	12	10	n/a	n/a	n/a	n/a	n/a	n/a	n/a	n/a	2000	0	BLOCKED	n/a	n/a	+	0	hostile	At this moment	1	3	12	209	NONE	n/a	0	-855.042219060898	2.01143663703833	-0.000397748957415455	9.09529986459197	1597.02496878901	0.20445810914681	1789.90925619746	-0.423575793623275	0.000206524376904297	78.7334568381807	1578.75942028986	5	2	0	1	0	1	0
359.280769691885	6.02166653737424	panas_none	365.302436229259	71	5	12	10	n/a	n/a	n/a	n/a	n/a	n/a	n/a	n/a	2000	0	BLOCKED	n/a	-1	7	-1	scared	At this moment	1	3	12	209	NONE	n/a	0.578027465667915	n/a	n/a	n/a	n/a	1549.49704142012	0.111452728670254	2364.4256037708	-0.936321553961615	0.000326091168751676	26.3040559237889	1746.8892733564	9	3	0	1	0	1	0
366.286607262492	11.1589963116348	panas_none	377.445603574127	72	5	12	10	n/a	n/a	n/a	n/a	n/a	n/a	n/a	n/a	2000	0	BLOCKED	n/a	n/a	+	0	active	At this moment	5	3	12	209	NONE	n/a	0	5215.77765371446	-2.27070989468081	0.000471048686921818	32.2171005865266	2549.51560549313	0.547271329746349	n/a	n/a	n/a	n/a	2326.02716468591	9	4	0	1	0	1	0
378.429770375967	2.51870032510158	reward_vlpfc	380.948470701069	73	2	13	10	0	0	0	0	250	250	250	750	2000	0	BLOCKED	0.75	1	0	-1	excited	At this moment	3	3	12	209	VLPFC	1024.74664483964	0.913857677902622	n/a	n/a	n/a	n/a	2721.63768115942	0.263643351268255	n/a	n/a	n/a	n/a	2366.64300626305	5	1	1	0	0	0	0
381.932493987873	2.51880293659866	reward_vlpfc	384.451296924472	74	2	13	10	0	0	0	0	250	250	250	750	2000	0	BLOCKED	0.75	1	0	-1	ashamed	At this moment	3	3	12	209	VLPFC	690.920823439956	0	4193.36482239414	-1.0195060982481	9.70537658073799e-05	44.1418261247648	2485.45443196005	0	1637.68543891037	1.33654275299186	-0.000485308447376244	19.3126687274355	2355.94004611837	0	2	1	0	0	0	0
385.435408718094	2.51876485398412	reward_vlpfc	387.954173572078	75	2	13	10	0	0	0	0	250	250	250	750	2000	0	BLOCKED	0.75	1	7	1	irritable	At this moment	5	3	12	209	VLPFC	590.029760852456	0.374531835205993	n/a	n/a	n/a	n/a	1683.71457085828	0.230591852421214	1244.37729777417	0.915891092066614	-0.000331008562403854	21.2772707001266	1790.40659340659	2	3	1	0	0	0	0
388.938330853268	2.51866541604699	reward_vlpfc	391.456996269315	76	2	13	10	0	0	0	0	250	250	250	750	2000	0	BLOCKED	0.75	1	6	1	attentive	At this moment	1	3	12	209	VLPFC	1357.18703497946	0.830212234706617	n/a	n/a	n/a	n/a	2586.08823529412	0.230591852421214	2088.76088655384	1.08637004387097	-0.000473794374733838	24.7077210183346	2561.64135864136	4	4	1	0	0	0	0
392.441142619371	2.51862415988745	reward_vlpfc	394.959766779259	77	2	13	10	0	0	0	0	250	250	250	750	2000	0	BLOCKED	0.75	-1	1	1	determined	At this moment	5	3	12	209	VLPFC	690.205364018679	0.454431960049938	n/a	n/a	n/a	n/a	1760.89473684211	0	1059.97620777177	1.76053088553898	-0.000546785201575842	20.6120763443374	2116.0099923136	2	5	1	0	0	0	0
395.94433838515	2.51835370284323	reward_vlpfc	398.462692087993	78	2	13	10	0	0	0	0	250	250	250	750	2000	0	BLOCKED	0.75	-1	2	1	excited	At this moment	5	3	12	209	VLPFC	440.779424116015	0.781523096129838	n/a	n/a	n/a	n/a	1403.56	0	1131.59358625812	0.449928838296952	7.94427817353986e-06	46.8162102652127	1519.15910837817	2	6	1	0	0	0	0
399.446959032983	2.51856915166974	reward_vlpfc	401.965528184652	79	2	13	10	0	0	0	0	250	250	250	750	2000	0	BLOCKED	0.75	-1	1	1	proud	At this moment	2	3	12	209	VLPFC	741.278376832604	0.374531835205993	n/a	n/a	n/a	n/a	1675.64870259481	0	1061.16359013271	0.830208346787472	-0.000394555557615782	144.762312626557	1415.95388162952	1	7	1	0	0	0	0
402.949599074736	2.51882515144348	reward_vlpfc	405.46842422618	80	2	13	10	0	0	0	0	250	250	250	750	2000	0	BLOCKED	0.75	1	7	1	guilty	At this moment	5	3	12	209	VLPFC	1040.78859214485	0.465667915106117	n/a	n/a	n/a	n/a	2016.67990654206	0.230591852421214	1053.21282400847	1.81430987440122	-0.00087994155060336	81.3378793696752	1870.55344655345	3	8	1	0	0	0	0
406.469135806814	6.02164326466624	panas_none	412.49077907148	81	5	14	10	n/a	n/a	n/a	n/a	n/a	n/a	n/a	n/a	2000	0	BLOCKED	n/a	n/a	+	0	active	At this moment	4	3	12	209	NONE	n/a	0.227215980024969	8124.34523184916	-7.5067954360495	0.00203362277443545	45.958337539998	1251.47495961228	0	980.577415740378	0.668902576353034	-0.000356084636154091	79.4014998098597	1252.52036894696	1	1	0	1	0	1	1
413.474870060727	6.02155898924167	panas_none	419.496429049969	82	5	14	10	n/a	n/a	n/a	n/a	n/a	n/a	n/a	n/a	2000	0	BLOCKED	n/a	n/a	+	0	irritable	At this moment	2	3	12	209	NONE	n/a	0	380.384485856093	0.985415373571215	-0.000229064971548816	13.0354992911904	1428.3645443196	0	1024.93241981561	1.11809314152619	-0.000513756682853384	17.3784060093986	1545.9615680246	0	2	0	1	0	1	1
420.480606782928	6.02159460355341	panas_none	426.502201386482	83	5	14	10	n/a	n/a	n/a	n/a	n/a	n/a	n/a	n/a	2000	0	BLOCKED	n/a	n/a	+	0	enthusiastic	At this moment	4	3	12	209	NONE	n/a	0	489.785198617905	0.148086345262138	3.07595747040167e-05	10.0862013483437	937.938826466916	0	825.315360698811	-0.0806279094819409	0.000105588235372023	12.740114575632	847.593389700231	6	3	0	1	0	1	1
427.486254293099	13.861242833063	panas_none	441.347497126162	84	5	14	10	n/a	n/a	n/a	n/a	n/a	n/a	n/a	n/a	2000	0	BLOCKED	n/a	n/a	+	0	scared	At this moment	2	3	12	209	NONE	n/a	0	883.683608306677	-0.0159914200933461	0.000151620514022452	13.2373825137059	1527.23470661673	0.34435049961568	n/a	n/a	n/a	n/a	950.539273153576	17	4	0	1	0	1	1
442.34832154417	2.51873699726161	punish_rtpj	444.867058541432	85	3	15	10	750	250	250	250	0	0	0	0	2000	0	BLOCKED	0.25	1	6	1	interested	At this moment	3	3	12	209	RTPJ	740.107689172029	0.47940074906367	n/a	n/a	n/a	n/a	2674.82014388489	0	1958.48543286657	1.29461359100275	-0.000408583597049073	25.0841630521668	2611.65180630284	1	1	0	0	1	0	0
445.867867796928	2.51872782920304	punish_rtpj	448.386595626131	86	3	15	10	750	250	250	250	0	0	0	0	2000	0	BLOCKED	0.25	1	0	-1	determined	At this moment	2	3	12	209	RTPJ	624.768859699368	0.6916354556804	n/a	n/a	n/a	n/a	2702.51821862348	0	1750.44370999341	1.04380920711002	-0.00025782835548594	8.5160731498117	2414.9431206764	2	2	0	0	1	0	0
449.370661579579	2.5186872782856	punish_rtpj	451.889348857865	87	3	15	10	750	250	250	250	0	0	0	0	2000	0	BLOCKED	0.25	-1	6	-1	afraid	At this moment	3	3	12	209	RTPJ	590.906013533473	0	5500.46505880344	-2.52803734008034	0.000546931604418574	14.4594307442588	2620.10112359551	0	1366.94959151136	1.19899111359237	-0.000274133135163005	26.9924226857463	2150.98616448885	0	3	0	0	1	0	0
452.873565731287	2.51875392286479	punish_rtpj	455.392319654152	88	3	15	10	750	250	250	250	0	0	0	0	2000	0	BLOCKED	0.25	1	2	-1	excited	At this moment	1	3	12	209	RTPJ	724.446920603514	0	3497.62106143997	-0.79233972332226	0.000119138529949565	20.5803078268422	2365.58926342072	0	1301.43620259913	1.35820044213919	-0.000401291031229331	12.7746594586157	2109.26364335127	0	4	0	0	1	0	0
456.376399007022	2.51873417632282	punish_rtpj	458.895133183345	89	3	15	10	750	250	250	250	0	0	0	0	2000	0	BLOCKED	0.25	-1	3	1	inspired	At this moment	4	3	12	209	RTPJ	556.558671921492	0	18237.3103628609	-15.3009443501682	0.0034462296012569	56.5041243786141	1487.65168539326	0.230591852421214	939.768937704911	1.54784898291898	-0.000546690040757153	12.1165533744403	1762.67332667333	1	5	0	0	1	0	0
459.895877204746	2.51878742143515	punish_rtpj	462.414664626181	90	3	15	10	750	250	250	250	0	0	0	0	2000	0	BLOCKED	0.25	-1	10	-1	determined	At this moment	5	3	12	209	RTPJ	707.127090111375	0.374531835205993	n/a	n/a	n/a	n/a	1680.65868263473	0	1205.49007994577	0.750980865590552	-0.000259401920766133	30.453421728928	1620.37970791699	1	6	0	0	1	0	0
463.398735868886	2.51902543775742	punish_rtpj	465.917761306644	91	3	15	10	750	250	250	250	0	0	0	0	2000	0	BLOCKED	0.25	1	4	-1	nervous	At this moment	4	3	12	209	RTPJ	557.276247024536	0	4430.82706359833	-2.44610698879625	0.000546526709291746	19.8886211873347	1733.12109862672	0	979.99062339413	0.984255464474976	-0.0002996492052633	28.2405317931902	1558.12990007686	0	7	0	0	1	0	0
466.901642488912	2.51877366940676	punish_rtpj	469.420416158319	92	3	15	10	750	250	250	250	0	0	0	0	2000	0	BLOCKED	0.25	-1	8	-1	enthusiastic	At this moment	5	3	12	209	RTPJ	340.780834570527	0	3723.2731262017	-1.9151670144752	0.000502422569220518	16.5870886134991	1943.50936329588	0	1098.58077733266	0.493975192893792	-3.45284133807765e-05	18.9633036159128	1490.74404304381	0	8	0	0	1	0	0
470.421153832585	6.02164255943899	panas_none	476.442796392024	93	5	16	10	n/a	n/a	n/a	n/a	n/a	n/a	n/a	n/a	2000	0	BLOCKED	n/a	n/a	+	0	attentive	At this moment	2	3	12	209	NONE	n/a	0	-2024.76949117853	2.62235435727679	-0.000565579458253136	20.3172118435018	957.9088639201	0	912.288062145935	0.68911986190601	-0.000549199030766368	43.2737457543499	1034.15910837817	6	1	0	1	0	0	0
477.426876450136	6.02154982122778	panas_none	483.448426271364	94	5	16	10	n/a	n/a	n/a	n/a	n/a	n/a	n/a	n/a	2000	0	BLOCKED	n/a	n/a	+	0	distressed	At this moment	1	3	12	209	NONE	n/a	0	-3486.67345750446	5.12844847702169	-0.00127033876114568	36.1805192490532	1614.60799001248	0	1763.45146541436	-0.452849151598182	0.000207646414354691	27.8792934173723	1557.82475019216	1	2	0	1	0	0	0
484.449153719753	6.02163057047125	panas_none	490.470784290224	95	5	16	10	n/a	n/a	n/a	n/a	n/a	n/a	n/a	n/a	2000	0	BLOCKED	n/a	n/a	+	0	excited	At this moment	4	3	12	209	NONE	n/a	0.399500624219725	n/a	n/a	n/a	n/a	1426.36382536383	0	1877.79866542513	-0.873099891181117	0.000333353072823443	20.4094691223747	1411.08455034589	5	3	0	1	0	0	0
491.471614702702	10.7254543467164	panas_none	502.197069049418	96	5	16	10	n/a	n/a	n/a	n/a	n/a	n/a	n/a	n/a	2000	0	BLOCKED	n/a	n/a	+	0	inspired	At this moment	3	3	12	209	NONE	n/a	0.374531835205993	n/a	n/a	n/a	n/a	2064.44111776447	0.685626441199078	n/a	n/a	n/a	n/a	1762.74083129584	7	4	0	1	0	0	0
