onset	duration	trial_type	offset	trial	block	blockCntr	frequency	amplitude_1	amplitude_2	amplitude_3	amplitude_4	amplitude_5	amplitude_6	amplitude_7	amplitude_8	transition	sham	mode	rewardFraction	guess	outcome	correct	word	when	answer	runNr	scanNr	subjectNr	target	reactionTime	outcomeEyeClosed	outcomeParms_1	outcomeParms_2	outcomeParms_3	outcomeSigma	outcomePupilArea	guessEyeClosed	guessParms_1	guessParms_2	guessParms_3	guessSigma	guessPupilArea	nrBlinks	trialInBlock	isReward	isPanas	isPunish	beforePanasReward	beforePanasVLPFC
20.3507205381244	2.51203905870765	reward_rtpj	22.8627595968321	1	1	1	10	750	250	250	250	0	0	0	0	2000	0	BLOCKED	0.75	-1	8	-1	enthusiastic	At this moment	1	3	11	231	RTPJ	1101.82951942459	0	2004.97093953307	0.0405701135097602	-0.000117933902272271	45.9675665707492	1564.22097378277	0	1325.30141986443	0.149704277694856	2.13974387206903e-05	46.187921423991	1470.64181398924	1	1	1	0	0	0	0
23.8636083465926	2.51880966284126	reward_rtpj	26.3824180094339	2	1	1	10	750	250	250	250	0	0	0	0	2000	0	BLOCKED	0.75	1	10	1	active	At this moment	2	3	11	231	RTPJ	506.983584962785	0.439450686641698	n/a	n/a	n/a	n/a	1412.98218262806	0.230591852421214	692.957495825866	1.06575642546861	-0.00033761802895846	15.6886615435405	1396.02897102897	2	2	1	0	0	0	0
27.3663432461098	2.51879908432439	reward_rtpj	29.8851423304342	3	1	1	10	750	250	250	250	0	0	0	0	2000	0	BLOCKED	0.75	1	10	1	irritable	At this moment	3	3	11	231	RTPJ	274.155693218112	0	13840.9952799795	-11.0730166953747	0.00244685907628571	21.9336126983384	1491.52808988764	0	1336.07615814009	0.27432323627326	1.71712185677779e-05	15.5138582500783	1583.75634127594	0	3	1	0	0	0	0
30.8692576278187	2.5187141035609	reward_rtpj	33.3879717313796	4	1	1	10	750	250	250	250	0	0	0	0	2000	0	BLOCKED	0.75	-1	0	1	jittery	At this moment	4	3	11	231	RTPJ	525.735418573022	0.456928838951311	n/a	n/a	n/a	n/a	1597.4091954023	0	1291.19896089788	0.497908072152354	-8.97876655800982e-05	16.8738525670203	1636.6764027671	1	4	1	0	0	0	0
34.3888705527931	2.51866685284674	reward_rtpj	36.9075374056399	5	1	1	10	750	250	250	250	0	0	0	0	2000	0	BLOCKED	0.75	-1	0	1	guilty	At this moment	3	3	11	231	RTPJ	491.913428228348	0.428214731585518	n/a	n/a	n/a	n/a	1587.13755458515	0	1356.29992592909	0.222579448951065	5.49318069823373e-05	27.2969170283767	1592.16064565719	1	5	1	0	0	0	0
37.8915634908564	2.51872573993355	reward_rtpj	40.41028923079	6	1	1	10	750	250	250	250	0	0	0	0	2000	0	BLOCKED	0.75	-1	1	1	interested	At this moment	5	3	11	231	RTPJ	540.58448427543	0	13549.6059262904	-10.8740429643774	0.00242797581283348	23.6380820354511	1536.9925093633	0	1428.09157597975	-0.00714233320076187	0.00017662669825591	24.6971711348249	1574.33512682552	0	6	1	0	0	0	0
41.4117116888426	2.53489077327401	reward_rtpj	43.9466024621166	7	1	1	10	750	250	250	250	0	0	0	0	2000	0	BLOCKED	0.75	1	1	-1	excited	At this moment	5	3	11	231	RTPJ	542.26964219287	0.0911360799001248	1568.0875670703	0.399269308712434	-0.000155558515040075	26.4121355081615	1722.78434065934	0	1111.71727016402	0.49991686493502	-6.32056964829456e-05	22.4967863622644	1482.42044581091	1	7	1	0	0	0	0
44.9307159964144	2.51873843415454	reward_rtpj	47.449454430569	8	1	1	10	750	250	250	250	0	0	0	0	2000	0	BLOCKED	0.75	1	8	1	strong	At this moment	4	3	11	231	RTPJ	523.451869152486	0	14740.3117444095	-11.878927593902	0.00262840812512779	29.419287900666	1516.75905118602	0	1148.0859868187	0.648092855082388	-0.000116719906185326	17.6723895389182	1598.87778631822	0	8	1	0	0	0	0
48.4334586535133	6.02181219886616	panas_none	54.4552708523795	9	5	2	10	n/a	n/a	n/a	n/a	n/a	n/a	n/a	n/a	2000	0	BLOCKED	n/a	n/a	+	0	alert	At this moment	4	3	11	231	NONE	n/a	0	1278.92514544623	-0.327789905129033	6.46658547732352e-05	11.6058071688356	879.275905118602	0.157571099154497	44.7682778992639	2.36353037000315	-0.00117901329619126	36.0181735001438	1117.01824817518	2	1	0	1	0	1	0
55.4559841971062	6.02153962571919	panas_none	61.4775238228254	10	5	2	10	n/a	n/a	n/a	n/a	n/a	n/a	n/a	n/a	2000	0	BLOCKED	n/a	n/a	+	0	inspired	At this moment	1	3	11	231	NONE	n/a	0	3249.92426124559	-2.29101024439118	0.000567875400228919	12.1320236762538	972.858926342072	0	965.045641228598	0.0796454269495867	-1.50833379579698e-05	15.0623919134779	1019.34204458109	1	2	0	1	0	1	0
62.461684960451	6.02155302517489	panas_none	68.4832379856259	11	5	2	10	n/a	n/a	n/a	n/a	n/a	n/a	n/a	n/a	2000	0	BLOCKED	n/a	n/a	+	0	afraid	At this moment	1	3	11	231	NONE	n/a	0	-881.123490127995	1.69485084085146	-0.000365394243521528	14.8163770709874	1046.84644194757	0	1057.14709834924	0.512420190492623	-0.000373297974328586	22.4815644019054	1170.38816295158	1	3	0	1	0	1	0
69.4840296113864	8.84052496248484	panas_none	78.3245545738712	12	5	2	10	n/a	n/a	n/a	n/a	n/a	n/a	n/a	n/a	2000	0	BLOCKED	n/a	n/a	+	0	hostile	At this moment	3	3	11	231	NONE	n/a	0.0761548064918851	3314.24998233481	-1.74330723774191	0.000401960267617865	16.3360767626138	1446.17972972973	0.282859338970023	n/a	n/a	n/a	n/a	1452.02465166131	4	4	0	1	0	1	0
79.3253814613596	2.51879802647234	punish_vlpfc	81.8441794878319	13	4	3	10	0	0	0	0	250	250	250	750	2000	0	BLOCKED	0.25	1	9	1	determined	At this moment	4	3	11	231	VLPFC	640.005980391055	0	10511.7162473338	-8.47818053772166	0.00193707781105088	19.5232218113624	1342.14481897628	0	644.544412152103	0.667636724956941	-8.79507554587876e-05	14.2368343044123	1136.16679477325	0	1	0	0	1	0	0
82.8281406914704	2.51883928269149	punish_vlpfc	85.3469799741618	14	4	3	10	0	0	0	0	250	250	250	750	2000	0	BLOCKED	0.25	1	9	1	interested	At this moment	3	3	11	231	VLPFC	673.467948500067	0	12012.0565891667	-9.53496834687053	0.00211082093484655	27.0356251326743	1396.65667915106	0	1065.89938312466	0.466220939073965	-5.68754885712445e-05	24.670952417073	1413.86241352806	0	2	0	0	1	0	0
86.3311224230751	2.51872186114267	punish_vlpfc	88.8498442842178	15	4	3	10	0	0	0	0	250	250	250	750	2000	0	BLOCKED	0.25	1	4	-1	excited	At this moment	5	3	11	231	VLPFC	375.015162542462	0.488139825218477	n/a	n/a	n/a	n/a	1664.15609756098	0	1092.45594422987	0.471518463609117	-5.82717002265509e-05	19.8912728315568	1443.61798616449	1	3	0	0	1	0	0
89.8339352510087	2.51869753055274	punish_vlpfc	92.3526327815615	16	4	3	10	0	0	0	0	250	250	250	750	2000	0	BLOCKED	0.25	-1	6	-1	inspired	At this moment	1	3	11	231	VLPFC	557.947711091489	0.394506866416979	n/a	n/a	n/a	n/a	1655.43505154639	0	1183.76299264839	0.511480615913604	-0.000145243085230913	14.1214924054389	1492.96771714066	1	4	0	0	1	0	0
93.3368023819998	2.51867355258018	punish_vlpfc	95.85547593458	17	4	3	10	0	0	0	0	250	250	250	750	2000	0	BLOCKED	0.25	1	2	-1	active	At this moment	4	3	11	231	VLPFC	523.322458621114	1	n/a	n/a	n/a	n/a	n/a	1	n/a	n/a	n/a	n/a	n/a	1	5	0	0	1	0	0
96.8395570280887	2.51876523306593	punish_vlpfc	99.3583222611547	18	4	3	10	0	0	0	0	250	250	250	750	2000	0	BLOCKED	0.25	1	1	-1	distressed	At this moment	2	3	11	231	VLPFC	223.196856345981	1	n/a	n/a	n/a	n/a	n/a	1	n/a	n/a	n/a	n/a	n/a	1	6	0	0	1	0	0
100.342477404289	2.51881636256725	punish_vlpfc	102.861293766856	19	4	3	10	0	0	0	0	250	250	250	750	2000	0	BLOCKED	0.25	-1	10	-1	afraid	At this moment	4	3	11	231	VLPFC	240.204292338341	0.700374531835206	n/a	n/a	n/a	n/a	1899.63333333333	0	1293.66749203534	0.4491376850244	-2.8737781537133e-05	30.1208968975598	1650.2098385857	1	7	0	0	1	0	0
103.84539495955	2.51872538731619	punish_vlpfc	106.364120346867	20	4	3	10	0	0	0	0	250	250	250	750	2000	0	BLOCKED	0.25	1	4	-1	nervous	At this moment	1	3	11	231	VLPFC	690.007461380213	0.787765293383271	n/a	n/a	n/a	n/a	1614.9	0	1088.51160229507	0.589599481762484	-9.71667686607388e-05	22.9484777827639	1506.24289008455	1	8	0	0	1	0	0
107.364786440883	6.02166374699398	panas_none	113.386450187877	21	5	4	10	n/a	n/a	n/a	n/a	n/a	n/a	n/a	n/a	2000	0	BLOCKED	n/a	n/a	+	0	jittery	At this moment	1	3	11	231	NONE	n/a	0	1231.22511037744	-0.45371209628231	0.000145759023361947	10.4489759576133	928.867665418227	0	1791.03406992133	-0.704172724278424	0.000117580037266307	77.730831456435	1296.21060722521	1	1	0	1	0	0	1
114.370571479756	6.02146592870727	panas_none	120.392037408464	22	5	4	10	n/a	n/a	n/a	n/a	n/a	n/a	n/a	n/a	2000	0	BLOCKED	n/a	n/a	+	0	alert	At this moment	3	3	11	231	NONE	n/a	0	751.326189574539	0.0675337105953369	8.91983297735742e-06	12.743160741031	932.895131086142	0	1241.29264070897	-0.0372344643230833	-0.00011462633052739	14.6873914032872	1110.33051498847	2	2	0	1	0	0	1
121.376654832833	6.02113200015575	panas_none	127.397786832988	23	5	4	10	n/a	n/a	n/a	n/a	n/a	n/a	n/a	n/a	2000	0	BLOCKED	n/a	n/a	+	0	afraid	At this moment	1	3	11	231	NONE	n/a	0.534332084893883	n/a	n/a	n/a	n/a	956.983914209115	0	1054.41866707759	-0.0931308276930562	4.66551827048886e-05	13.7745534353575	1015.59569561875	2	3	0	1	0	0	1
128.381897898965	11.5928166221008	panas_none	139.974714521065	24	5	4	10	n/a	n/a	n/a	n/a	n/a	n/a	n/a	n/a	2000	0	BLOCKED	n/a	n/a	+	0	ashamed	At this moment	4	3	11	231	NONE	n/a	0.253433208489388	n/a	n/a	n/a	n/a	1298.83612040134	0.309761721752498	n/a	n/a	n/a	n/a	1119.38084632517	6	4	0	1	0	0	1
140.97544902283	2.51872256637736	reward_vlpfc	143.494171589207	25	2	5	10	0	0	0	0	250	250	250	750	2000	0	BLOCKED	0.75	1	6	1	interested	At this moment	2	3	11	231	VLPFC	1157.94467858225	0	5977.06558089029	-4.15744707015848	0.000892798828744405	14.4211363685867	1222.62921348315	0	677.289890139	0.622544558138478	-0.000153987200309177	14.1978724201935	1073.39815526518	0	1	1	0	0	0	0
144.495376835022	2.51840450560303	reward_vlpfc	147.013781340625	26	2	5	10	0	0	0	0	250	250	250	750	2000	0	BLOCKED	0.75	1	10	1	alert	At this moment	3	3	11	231	VLPFC	339.600047390908	0.523096129837703	n/a	n/a	n/a	n/a	1474.42408376963	0	880.374603660797	0.474386612681153	-7.78739417860779e-06	16.9242012725207	1277.17217524981	1	2	1	0	0	0	0
147.997923789535	2.51875677025316	reward_vlpfc	150.516680559788	27	2	5	10	0	0	0	0	250	250	250	750	2000	0	BLOCKED	0.75	1	3	-1	upset	At this moment	5	3	11	231	VLPFC	324.232634305954	0.598002496878901	n/a	n/a	n/a	n/a	1713.89130434783	0	1199.70905985597	0.292830825211335	1.36458888536823e-05	20.8236390262796	1459.32744043044	1	3	1	0	0	0	0
151.500872375119	2.51866297405584	reward_vlpfc	154.019535349175	28	2	5	10	0	0	0	0	250	250	250	750	2000	0	BLOCKED	0.75	-1	2	1	scared	At this moment	2	3	11	231	VLPFC	391.211226206273	0.48314606741573	n/a	n/a	n/a	n/a	1626.85265700483	0	1167.68578599748	0.367893200660281	-9.06959679428817e-06	17.4731107839095	1472.20599538816	1	4	1	0	0	0	0
155.003573775999	2.51875677024572	reward_vlpfc	157.522330546245	29	2	5	10	0	0	0	0	250	250	250	750	2000	0	BLOCKED	0.75	-1	0	1	proud	At this moment	1	3	11	231	VLPFC	273.571053788066	0	10284.8519395605	-7.75687428782506	0.00169171585363584	19.2635821451557	1527.66292134831	0	1191.19527707036	0.491501504506994	-8.93680531645756e-05	15.4489644505859	1531.7524980784	0	5	1	0	0	0	0
158.506515309233	2.51867214211077	reward_vlpfc	161.025187451344	30	2	5	10	0	0	0	0	250	250	250	750	2000	0	BLOCKED	0.75	1	1	-1	irritable	At this moment	3	3	11	231	VLPFC	573.686782777309	0.586766541822722	n/a	n/a	n/a	n/a	1653.41087613293	0	1110.72680997671	0.408677558124862	-7.13295705855292e-05	21.9355613618785	1396.5710991545	1	6	1	0	0	0	0
162.009336952597	2.51874301818015	reward_vlpfc	164.528079970777	31	2	5	10	0	0	0	0	250	250	250	750	2000	0	BLOCKED	0.75	-1	0	1	nervous	At this moment	2	3	11	231	VLPFC	639.930520296097	0	9061.73753307445	-6.5192935616313	0.00140035368509739	19.3797184914131	1604.5418227216	0.230591852421214	1261.0637370007	0.690059287885843	-0.000231313084379761	15.0222993124705	1702.11988011988	1	7	1	0	0	0	0
165.512179400384	2.5186940043792	reward_vlpfc	168.030873404764	32	2	5	10	0	0	0	0	250	250	250	750	2000	0	BLOCKED	0.75	1	8	1	afraid	At this moment	1	3	11	231	VLPFC	607.014051090926	0	7587.66768033864	-5.23451888214588	0.00110221207789321	19.3410469822412	1501.03495630462	0.230591852421214	1155.60515965477	0.51755103025715	-0.000120122646930897	20.4202268491712	1526.27972027972	1	8	1	0	0	0	0
169.031742958941	6.02153398384155	panas_none	175.053276942782	33	5	6	10	n/a	n/a	n/a	n/a	n/a	n/a	n/a	n/a	2000	0	BLOCKED	n/a	n/a	+	0	hostile	At this moment	1	3	11	231	NONE	n/a	0	1052.64666213674	-0.240952820143197	8.71592406673504e-05	15.0379678123926	935.498127340824	0.112221368178324	292.677646344829	2.17711740022842	-0.00115917467176513	29.7839936222448	1197.91341991342	2	1	0	1	0	1	1
176.037375667155	6.02167785168442	panas_none	182.059053518839	34	5	6	10	n/a	n/a	n/a	n/a	n/a	n/a	n/a	n/a	2000	0	BLOCKED	n/a	n/a	+	0	upset	At this moment	1	3	11	231	NONE	n/a	0.313358302122347	n/a	n/a	n/a	n/a	816.689090909091	0	970.181190621655	0.0646590787341069	-9.12950716685316e-05	10.852979834193	946.404304381245	1	2	0	1	0	1	1
183.043053157758	6.02152728411554	panas_none	189.064580441874	35	5	6	10	n/a	n/a	n/a	n/a	n/a	n/a	n/a	n/a	2000	0	BLOCKED	n/a	n/a	+	0	inspired	At this moment	1	3	11	231	NONE	n/a	0	828.894530599614	-0.0644565750531601	4.95636042070464e-05	13.0040671402739	914.754057428215	0	780.250077649108	0.261521381445164	-0.000146959825410701	9.97311447851303	875.795541890853	2	3	0	1	0	1	1
190.048900609888	13.7444258262552	panas_none	203.793326436143	36	5	6	10	n/a	n/a	n/a	n/a	n/a	n/a	n/a	n/a	2000	0	BLOCKED	n/a	n/a	+	0	excited	At this moment	3	3	11	231	NONE	n/a	0.0499375780274657	-725.701391512284	1.9954100752772	-0.000505654736759171	24.7023054777858	1203.40341655716	0.292851652574942	n/a	n/a	n/a	n/a	1059.41956521739	6	4	0	1	0	1	1
204.794183648717	2.5187155140303	punish_vlpfc	207.312899162747	37	4	7	10	0	0	0	0	250	250	250	750	2000	0	BLOCKED	0.25	1	9	1	scared	At this moment	2	3	11	231	VLPFC	706.624902676791	0.374531835205993	n/a	n/a	n/a	n/a	1332.69461077844	0	609.174957056366	0.621926231560356	-8.92349102614347e-05	19.7842841340751	1060.86471944658	1	1	0	0	1	0	0
208.296923484877	2.51879379506411	punish_vlpfc	210.815717279941	38	4	7	10	0	0	0	0	250	250	250	750	2000	0	BLOCKED	0.25	1	2	-1	guilty	At this moment	2	3	11	231	VLPFC	423.610405877233	0.594257178526841	n/a	n/a	n/a	n/a	1791.88307692308	0	1249.5463323399	0.12278083358659	0.000151045892900379	29.6819332509983	1485.12759415834	1	2	0	0	1	0	0
211.79987171784	2.51869682531805	punish_vlpfc	214.318568543158	39	4	7	10	0	0	0	0	250	250	250	750	2000	0	BLOCKED	0.25	-1	6	-1	afraid	At this moment	1	3	11	231	VLPFC	257.274141587317	0.685393258426966	n/a	n/a	n/a	n/a	1724.30952380952	0.309761721752498	n/a	n/a	n/a	n/a	1609.57349665924	2	3	0	0	1	0	0
215.321056610588	2.51708395393936	punish_vlpfc	217.838140564527	40	4	7	10	0	0	0	0	250	250	250	750	2000	0	BLOCKED	0.25	-1	10	-1	proud	At this moment	2	3	11	231	VLPFC	888.781340621412	0	1972.00023646152	-0.0227653405408874	-4.31266895532295e-05	21.2727668395224	1731.90761548065	0.230591852421214	1296.24251507437	0.434005600070787	-7.96701283574316e-05	20.1564247751154	1630.97902097902	1	4	0	0	1	0	0
218.82239690882	2.51854907868056	punish_vlpfc	221.3409459875	41	4	7	10	0	0	0	0	250	250	250	750	2000	0	BLOCKED	0.25	-1	0	1	active	At this moment	5	3	11	231	VLPFC	440.026855327189	0	8854.11196365711	-6.64981287262941	0.00146539947150948	18.7398107269489	1413.68913857678	0.359723289777095	n/a	n/a	n/a	n/a	1490.60384153661	1	5	0	0	1	0	0
222.3249738358	2.51879414768143	punish_vlpfc	224.843767983481	42	4	7	10	0	0	0	0	250	250	250	750	2000	0	BLOCKED	0.25	-1	8	-1	irritable	At this moment	4	3	11	231	VLPFC	590.661072745919	0.523096129837703	n/a	n/a	n/a	n/a	1704.73298429319	0	1074.2418571218	0.608985528192178	-0.000171131895986992	20.7069937929017	1446.3051498847	1	6	0	0	1	0	0
225.827941462714	2.51868730465324	punish_vlpfc	228.346628767367	43	4	7	10	0	0	0	0	250	250	250	750	2000	0	BLOCKED	0.25	1	3	-1	distressed	At this moment	2	3	11	231	VLPFC	322.964975234121	1	n/a	n/a	n/a	n/a	n/a	1	n/a	n/a	n/a	n/a	n/a	2	7	0	0	1	0	0
229.330796957336	2.51868836250156	punish_vlpfc	231.849485319838	44	4	7	10	0	0	0	0	250	250	250	750	2000	0	BLOCKED	0.25	1	3	-1	strong	At this moment	3	3	11	231	VLPFC	589.905766561627	0.625468164794007	n/a	n/a	n/a	n/a	1657.15	0.251345119139124	n/a	n/a	n/a	n/a	1502.94045174538	2	8	0	0	1	0	0
232.850278356072	6.02158335025982	panas_none	238.871861706331	45	5	8	10	n/a	n/a	n/a	n/a	n/a	n/a	n/a	n/a	2000	0	BLOCKED	n/a	n/a	+	0	guilty	At this moment	1	3	11	231	NONE	n/a	0	317.043766605615	0.488159475631444	-8.08325802172493e-05	13.2418975336667	981.566791510612	0	1621.64674423591	-0.587727924327773	0.000139503649405508	59.0433265660006	1245.1521906226	2	1	0	1	0	0	1
239.856029191069	6.02151987915116	panas_none	245.87754907022	46	5	8	10	n/a	n/a	n/a	n/a	n/a	n/a	n/a	n/a	2000	0	BLOCKED	n/a	n/a	+	0	afraid	At this moment	1	3	11	231	NONE	n/a	0	3197.94219597027	-1.71478251960218	0.000411078254103075	26.2036002687059	1431.65293383271	0.245964642582629	1483.11714540243	-0.00643254801820513	6.07183999558421e-05	25.9851919995241	1532.6625891947	3	2	0	1	0	0	1
246.861738769848	6.02170993985607	panas_none	252.883448709704	47	5	8	10	n/a	n/a	n/a	n/a	n/a	n/a	n/a	n/a	2000	0	BLOCKED	n/a	n/a	+	0	scared	At this moment	1	3	11	231	NONE	n/a	0	-295.89392194221	1.41671139661752	-0.000354222856946799	11.457070802011	1097.87390761548	0	1455.69329412727	0.0546456297603415	-0.000160953120045978	26.1601146985551	1362.49807840123	2	3	0	1	0	0	1
253.867376767319	6.73884424754604	panas_none	260.606221014865	48	5	8	10	n/a	n/a	n/a	n/a	n/a	n/a	n/a	n/a	2000	0	BLOCKED	n/a	n/a	+	0	excited	At this moment	5	3	11	231	NONE	n/a	0	-517.46517989207	1.75176950587008	-0.000416788760644843	13.390031244068	1300.82771535581	0.207532667179093	904.437681228837	0.471200969050335	-0.000129067986577175	20.6690957902609	1163.84578079534	2	4	0	1	0	0	1
261.590365226861	2.51870176195729	reward_vlpfc	264.109066988818	49	2	9	10	0	0	0	0	250	250	250	750	2000	0	BLOCKED	0.75	1	6	1	ashamed	At this moment	5	3	11	231	VLPFC	991.087598592043	0	5381.2152731347	-3.65129892292469	0.000772322576831721	16.7236705519227	1160.0911360799	0.421983089930822	n/a	n/a	n/a	n/a	1152.31117021277	1	1	1	0	0	0	0
265.093166771043	2.51875818071886	reward_vlpfc	267.611924951762	50	2	9	10	0	0	0	0	250	250	250	750	2000	0	BLOCKED	0.75	1	6	1	interested	At this moment	3	3	11	231	VLPFC	473.161242004484	0.469413233458177	n/a	n/a	n/a	n/a	1379.26588235294	0	870.834838215185	0.444878140813201	-3.51392163242421e-05	13.2307337174477	1218.61491160646	1	2	1	0	0	0	0
268.595971841399	2.51883434604855	reward_vlpfc	271.114806187447	51	2	9	10	0	0	0	0	250	250	250	750	2000	0	BLOCKED	0.75	1	8	1	inspired	At this moment	5	3	11	231	VLPFC	306.971313878894	0	7334.34168449542	-4.99852784478264	0.00102177902741104	17.6674328799899	1382.86516853933	0	1064.28720917465	0.391161207553477	-2.84833997556662e-05	17.581291052843	1371.79400461184	0	3	1	0	0	0	0
272.098902796116	2.5187401972413	reward_vlpfc	274.617642993357	52	2	9	10	0	0	0	0	250	250	250	750	2000	0	BLOCKED	0.75	-1	2	1	upset	At this moment	3	3	11	231	VLPFC	557.977330941707	0.504369538077403	n/a	n/a	n/a	n/a	1465.63727959698	0	1042.89949042688	0.407326760323774	-5.4644344871443e-05	16.2435943625	1341.92236740968	1	4	1	0	0	0	0
275.601753706712	2.51879450030253	reward_vlpfc	278.120548207015	53	2	9	10	0	0	0	0	250	250	250	750	2000	0	BLOCKED	0.75	-1	10	-1	hostile	At this moment	3	3	11	231	VLPFC	307.099666569382	0.481897627965044	n/a	n/a	n/a	n/a	1653.34457831325	0	1217.47445146523	0.287477302145923	-6.16131714392577e-06	19.1681073257888	1456.01460415065	1	5	1	0	0	0	0
279.104537972651	2.51893272626398	reward_vlpfc	281.623470698915	54	2	9	10	0	0	0	0	250	250	250	750	2000	0	BLOCKED	0.75	1	9	1	afraid	At this moment	4	3	11	231	VLPFC	640.455567404628	0	8507.91370283655	-6.13141310143719	0.00131122526181913	18.391174558864	1466.42322097378	0.351268255188317	n/a	n/a	n/a	n/a	1576.68720379147	1	6	1	0	0	0	0
282.607635715336	2.51858716134728	reward_vlpfc	285.126222876683	55	2	9	10	0	0	0	0	250	250	250	750	2000	0	BLOCKED	0.75	1	9	1	ashamed	At this moment	5	3	11	231	VLPFC	356.712563328445	0.374531835205993	n/a	n/a	n/a	n/a	1517.74451097804	0	1058.49307223838	0.558025048133132	-0.000125479714835729	15.9160764556559	1424.714066103	1	7	1	0	0	0	0
286.110314548709	2.51869118343666	reward_vlpfc	288.629005732145	56	2	9	10	0	0	0	0	250	250	250	750	2000	0	BLOCKED	0.75	-1	6	-1	attentive	At this moment	4	3	11	231	VLPFC	406.719333581626	0.574282147315855	n/a	n/a	n/a	n/a	1750.49560117302	0	1063.48035649526	0.636866606071017	-0.000158629135965886	23.5850690323933	1468.52190622598	1	8	1	0	0	0	0
289.62976809068	6.02172404454649	panas_none	295.651492135227	57	5	10	10	n/a	n/a	n/a	n/a	n/a	n/a	n/a	n/a	2000	0	BLOCKED	n/a	n/a	+	0	jittery	At this moment	1	3	11	231	NONE	n/a	0.440699126092385	n/a	n/a	n/a	n/a	927.303571428571	0	1435.71523618693	-0.101903575922152	-0.00011326448117475	55.0652252316716	1253.12605687932	4	1	0	1	0	1	1
296.635641636483	6.02144900308173	panas_none	302.657090639565	58	5	10	10	n/a	n/a	n/a	n/a	n/a	n/a	n/a	n/a	2000	0	BLOCKED	n/a	n/a	+	0	irritable	At this moment	3	3	11	231	NONE	n/a	0.224719101123595	2784.114419659	-1.94552386240443	0.000475360941912085	11.4285559305336	809.22383252818	0	871.731177183251	0.730754374672621	-0.000495444200963629	25.2714756571194	1065.0668716372	1	2	0	1	0	1	1
303.641214047145	6.02163306929168	panas_none	309.662847116437	59	5	10	10	n/a	n/a	n/a	n/a	n/a	n/a	n/a	n/a	2000	0	BLOCKED	n/a	n/a	+	0	upset	At this moment	1	3	11	231	NONE	n/a	0	3949.20636954273	-2.69906046557534	0.000645784105401257	18.351465271662	1163.46816479401	0	919.300853248037	0.384584009053137	-9.0846783745064e-05	16.5486992164168	1167.69177555726	1	3	0	1	0	1	1
310.646902116273	13.5610736631565	panas_none	324.207975779429	60	5	10	10	n/a	n/a	n/a	n/a	n/a	n/a	n/a	n/a	2000	0	BLOCKED	n/a	n/a	+	0	hostile	At this moment	1	3	11	231	NONE	n/a	0	681.203966340436	0.553209794486997	-0.000110758608103376	15.0735046478678	1348.47565543071	0	940.424913438836	0.597416975738729	-0.000283766301099451	30.7026371487054	1203.40199846272	5	4	0	1	0	1	1
325.192090371575	2.51871939282489	punish_rtpj	327.7108097644	61	3	11	10	750	250	250	250	0	0	0	0	2000	0	BLOCKED	0.25	1	6	1	inspired	At this moment	3	3	11	231	RTPJ	1473.50892262906	0	8472.40938986472	-6.25475656123019	0.00138759683992086	22.8804555400157	1524.51310861423	0.230591852421214	1026.03977909766	0.642032491632679	-0.000104528574641904	26.7574164942725	1503.50949050949	1	1	0	0	1	0	0
328.694985006716	2.51871657188241	punish_rtpj	331.213701578598	62	3	11	10	750	250	250	250	0	0	0	0	2000	0	BLOCKED	0.25	-1	7	-1	attentive	At this moment	2	3	11	231	RTPJ	423.470769438893	0.458177278401998	n/a	n/a	n/a	n/a	1608.02764976959	0	957.934869571914	0.788155075923036	-0.000239601356757183	16.968924430619	1428.47194465796	1	2	0	0	1	0	0
332.197838385634	2.51870810906962	punish_rtpj	334.716546494704	63	3	11	10	750	250	250	250	0	0	0	0	2000	0	BLOCKED	0.25	1	3	-1	determined	At this moment	4	3	11	231	RTPJ	524.995980165899	0.565543071161049	n/a	n/a	n/a	n/a	1608.98850574713	0.295157571099154	n/a	n/a	n/a	n/a	1473.52126499455	2	3	0	0	1	0	0
335.70062653036	2.51876629091799	punish_rtpj	338.219392821278	64	3	11	10	750	250	250	250	0	0	0	0	2000	0	BLOCKED	0.25	1	6	1	nervous	At this moment	5	3	11	231	RTPJ	657.00953759253	0.559300873907616	n/a	n/a	n/a	n/a	1567.29745042493	0.335895465026902	n/a	n/a	n/a	n/a	1585.57638888889	2	4	0	0	1	0	0
339.203507413425	2.51872186114264	punish_rtpj	341.722229274567	65	3	11	10	750	250	250	250	0	0	0	0	2000	0	BLOCKED	0.25	1	3	-1	irritable	At this moment	2	3	11	231	RTPJ	539.708230372518	0.674157303370786	n/a	n/a	n/a	n/a	1608.27586206897	0	1121.42273100536	0.430447770471048	-9.40724869655881e-05	21.3965752525392	1406.95311299001	1	5	0	0	1	0	0
342.706391117431	2.51868730464952	punish_rtpj	345.225078422081	66	3	11	10	750	250	250	250	0	0	0	0	2000	0	BLOCKED	0.25	1	1	-1	guilty	At this moment	2	3	11	231	RTPJ	573.74531724304	0.666666666666667	n/a	n/a	n/a	n/a	1559.53558052434	0.30130668716372	n/a	n/a	n/a	n/a	1454.73267326733	2	6	0	0	1	0	0
346.209117201518	2.51876276474445	punish_rtpj	348.727879966263	67	3	11	10	750	250	250	250	0	0	0	0	2000	0	BLOCKED	0.25	-1	10	-1	scared	At this moment	1	3	11	231	RTPJ	157.120612032712	0.511860174781523	n/a	n/a	n/a	n/a	1598.80562659847	0.380476556495004	n/a	n/a	n/a	n/a	1492.19602977668	2	7	0	0	1	0	0
349.728782313846	2.51873490798471	punish_rtpj	352.247517221831	68	3	11	10	750	250	250	250	0	0	0	0	2000	0	BLOCKED	0.25	1	4	-1	excited	At this moment	5	3	11	231	RTPJ	774.440960589796	1	n/a	n/a	n/a	n/a	n/a	1	n/a	n/a	n/a	n/a	n/a	1	8	0	0	1	0	0
353.248293685053	6.02156889294832	panas_none	359.269862578001	69	5	12	10	n/a	n/a	n/a	n/a	n/a	n/a	n/a	n/a	2000	0	BLOCKED	n/a	n/a	+	0	attentive	At this moment	3	3	11	231	NONE	n/a	0	1670.99365429825	-0.98421524793152	0.000271053043098076	11.6003782379664	814.071161048689	0	2069.52274464598	-1.47130338140349	0.000494618038315773	62.6876815716496	1246.18754803997	1	1	0	1	0	0	0
360.253965533778	6.02162954312195	panas_none	366.2755950769	70	5	12	10	n/a	n/a	n/a	n/a	n/a	n/a	n/a	n/a	2000	0	BLOCKED	n/a	n/a	+	0	proud	At this moment	2	3	11	231	NONE	n/a	0	2213.84249511362	-0.970784262611727	0.000225371602389405	15.1450676362168	1181.34082397004	0	1080.76507088053	-0.213890284291155	0.000220093649480755	18.7065837203442	1089.29131437356	1	2	0	1	0	0	0
367.259908545189	6.021282215111	panas_none	373.2811907603	71	5	12	10	n/a	n/a	n/a	n/a	n/a	n/a	n/a	n/a	2000	0	BLOCKED	n/a	n/a	+	0	guilty	At this moment	1	3	11	231	NONE	n/a	0	1319.00420512483	-0.490849763801521	0.000148596267103677	12.7153387845335	951.481897627965	0	1048.54367916027	-0.016602840040311	-3.18586841103092e-05	10.3018659280482	1006.82628747118	2	3	0	1	0	0	0
374.265377638988	9.17409631247074	panas_none	383.439473951459	72	5	12	10	n/a	n/a	n/a	n/a	n/a	n/a	n/a	n/a	2000	0	BLOCKED	n/a	n/a	+	0	enthusiastic	At this moment	2	3	11	231	NONE	n/a	0.434456928838951	n/a	n/a	n/a	n/a	1473.6357615894	0.230591852421214	1184.45969076396	0.352601536239487	-8.83679358065553e-05	14.7476979823138	1386.71528471528	5	4	0	1	0	0	0
384.423853006557	2.51851628527419	punish_rtpj	386.942369291831	73	3	13	10	750	250	250	250	0	0	0	0	2000	0	BLOCKED	0.25	1	2	-1	attentive	At this moment	5	3	11	231	RTPJ	740.217691797763	0.556803995006242	n/a	n/a	n/a	n/a	1607.80845070423	0.364335126825519	n/a	n/a	n/a	n/a	1442.61910519952	2	1	0	0	1	0	0
387.926581558965	2.51866085835172	punish_rtpj	390.445242417317	74	3	13	10	750	250	250	250	0	0	0	0	2000	0	BLOCKED	0.25	1	0	-1	strong	At this moment	4	3	11	231	RTPJ	1057.32005235925	0.697877652933833	n/a	n/a	n/a	n/a	1620.35537190083	0	1161.66047279682	0.164680864899377	9.98206997379961e-05	18.8778507615057	1387.86010760953	1	2	0	0	1	0	0
391.429275907498	2.51866896855455	punish_rtpj	393.947944876052	75	3	13	10	750	250	250	250	0	0	0	0	2000	0	BLOCKED	0.25	-1	8	-1	nervous	At this moment	3	3	11	231	RTPJ	507.790373265743	1	n/a	n/a	n/a	n/a	n/a	1	n/a	n/a	n/a	n/a	n/a	2	3	0	0	1	0	0
394.932113066021	2.51879026889429	punish_rtpj	397.450903334916	76	3	13	10	750	250	250	250	0	0	0	0	2000	0	BLOCKED	0.25	1	4	-1	afraid	At this moment	3	3	11	231	RTPJ	356.183637432754	0.585518102372035	n/a	n/a	n/a	n/a	1664.3343373494	0	1032.56939500637	0.540511581435976	-0.000101562599231599	20.3548285856414	1404.45196003075	1	4	0	0	1	0	0
398.435081045557	2.51866614761207	punish_rtpj	400.953747193169	77	3	13	10	750	250	250	250	0	0	0	0	2000	0	BLOCKED	0.25	1	0	-1	upset	At this moment	5	3	11	231	RTPJ	339.679033655673	0	2606.45880561476	-0.910893413163336	0.000209197253009379	22.5322761828992	1626.9013732834	0	1052.65364281981	0.508611945582306	-8.83744391019306e-05	25.5561135914573	1408.82782475019	0	5	0	0	1	0	0
401.937901983686	2.51877087494358	punish_rtpj	404.456672858629	78	3	13	10	750	250	250	250	0	0	0	0	2000	0	BLOCKED	0.25	-1	0	1	irritable	At this moment	1	3	11	231	RTPJ	573.498132541776	0	11415.2391747908	-9.00290681065189	0.00198169929901094	25.6581453805615	1346.47440699126	0	1111.71294947033	0.5347598609845	-0.000124696615505011	16.8972785694963	1458.42582628747	0	6	0	0	1	0	0
405.440684839152	2.51892461607235	punish_rtpj	407.959609455224	79	3	13	10	750	250	250	250	0	0	0	0	2000	0	BLOCKED	0.25	-1	10	-1	inspired	At this moment	5	3	11	231	RTPJ	373.145233176649	0.617977528089888	n/a	n/a	n/a	n/a	1580.12418300654	0	1087.94457852814	0.431219423863903	-6.71618059690603e-05	19.402844048609	1395.70099923136	1	7	0	0	1	0	0
408.943581237379	2.51873208704217	punish_rtpj	411.462313324422	80	3	13	10	750	250	250	250	0	0	0	0	2000	0	BLOCKED	0.25	-1	2	1	distressed	At this moment	2	3	11	231	RTPJ	306.499864593148	0.468164794007491	n/a	n/a	n/a	n/a	1477.17605633803	0	1223.72607612592	0.300391434671571	-4.97530580488823e-05	23.3288432296385	1436.95849346656	1	8	0	0	1	0	0
412.463268211979	6.02173039165513	panas_none	418.484998603635	81	5	14	10	n/a	n/a	n/a	n/a	n/a	n/a	n/a	n/a	2000	0	BLOCKED	n/a	n/a	+	0	upset	At this moment	2	3	11	231	NONE	n/a	0	811.49691559692	0.0628547096567921	-7.11264660238963e-06	10.5946708127392	911.383270911361	0	698.29469098641	1.27114606792873	-0.000754707879186695	31.2410879935281	1153.89392774789	1	1	0	1	0	0	0
419.468953812782	6.02148285433651	panas_none	425.490436667118	82	5	14	10	n/a	n/a	n/a	n/a	n/a	n/a	n/a	n/a	2000	0	BLOCKED	n/a	n/a	+	0	guilty	At this moment	1	3	11	231	NONE	n/a	0	3585.76775950456	-2.28984442876243	0.000535006690650066	17.681355165353	1164.92759051186	0	1372.49202910347	-0.215844271861195	0.000101740009341837	34.3577430797125	1276.72328977709	1	2	0	1	0	0	0
426.474458520927	6.02168384618312	panas_none	432.49614236711	83	5	14	10	n/a	n/a	n/a	n/a	n/a	n/a	n/a	n/a	2000	0	BLOCKED	n/a	n/a	+	0	afraid	At this moment	1	3	11	231	NONE	n/a	0.0536828963795256	1094.00774577249	-0.207235303041276	6.94674910618681e-05	14.0510738908008	966.558047493404	0	1012.62650491111	0.195451233403466	-0.000131103251972223	15.9561717871203	1065.17832436587	2	3	0	1	0	0	0
433.480238623157	12.9106531318054	panas_none	446.390891754963	84	5	14	10	n/a	n/a	n/a	n/a	n/a	n/a	n/a	n/a	2000	0	BLOCKED	n/a	n/a	+	0	determined	At this moment	3	3	11	231	NONE	n/a	0	2786.03688805385	-1.47928517380131	0.000383229850937053	13.920000801885	1390.04744069913	0.345119139123751	n/a	n/a	n/a	n/a	1289.97300469484	6	4	0	1	0	0	0
447.374962975189	2.51872080329059	reward_rtpj	449.89368377848	85	1	15	10	750	250	250	250	0	0	0	0	2000	0	BLOCKED	0.75	1	4	-1	excited	At this moment	2	3	11	231	RTPJ	806.90184827894	0	2164.00946827158	-0.238108083180007	-9.84236319922018e-06	18.0845948964169	1619.86392009988	0.339738662567256	n/a	n/a	n/a	n/a	1538.97788125728	1	1	1	0	0	0	0
450.877650623992	2.51876875923944	reward_rtpj	453.396419383232	86	1	15	10	750	250	250	250	0	0	0	0	2000	0	BLOCKED	0.75	-1	1	1	inspired	At this moment	4	3	11	231	RTPJ	624.278545074165	0.333333333333333	n/a	n/a	n/a	n/a	1453.16104868914	0	973.417788584031	0.491772353553131	-7.2067470876713e-05	26.748340713719	1329.59800153728	1	2	1	0	0	0	0
454.380593920317	2.51867884183679	reward_rtpj	456.899272762153	87	1	15	10	750	250	250	250	0	0	0	0	2000	0	BLOCKED	0.75	-1	2	1	ashamed	At this moment	5	3	11	231	RTPJ	290.871162112802	0.416978776529338	n/a	n/a	n/a	n/a	1390.26338329764	0	1153.4338973003	0.353737882944929	-1.54801114358848e-05	15.9740144416316	1440.86779400461	1	3	1	0	0	0	0
457.883424731731	2.51869224129246	reward_rtpj	460.402116973024	88	1	15	10	750	250	250	250	0	0	0	0	2000	0	BLOCKED	0.75	1	10	1	scared	At this moment	1	3	11	231	RTPJ	875.827592723072	0.431960049937578	n/a	n/a	n/a	n/a	1579.5032967033	0	1077.81661314877	0.696901776162828	-0.000206918620793686	16.1986119082741	1498.45657186779	1	4	1	0	0	0	0
461.386213581689	2.51880331573261	reward_rtpj	463.905016897421	89	1	15	10	750	250	250	250	0	0	0	0	2000	0	BLOCKED	0.75	-1	1	1	attentive	At this moment	2	3	11	231	RTPJ	457.069905668497	0.403245942571785	n/a	n/a	n/a	n/a	1444.60878661088	0	1185.802484644	0.484895327777376	-0.000166747560404019	30.7380570777655	1454.8186010761	1	5	1	0	0	0	0
464.88910821683	2.51881318901479	reward_rtpj	467.407921405844	90	1	15	10	750	250	250	250	0	0	0	0	2000	0	BLOCKED	0.75	-1	6	-1	strong	At this moment	1	3	11	231	RTPJ	407.31419891119	0.645443196004994	n/a	n/a	n/a	n/a	1607.79577464789	0	1198.92358391256	0.320119495749766	-5.2174072293153e-05	18.8290686223972	1425.97694081476	1	6	1	0	0	0	0
468.391979226615	2.51875324407968	reward_rtpj	470.910732470695	91	1	15	10	750	250	250	250	0	0	0	0	2000	0	BLOCKED	0.75	-1	3	1	determined	At this moment	4	3	11	231	RTPJ	523.322458613664	0.596754057428215	n/a	n/a	n/a	n/a	1542.80495356037	0	1289.68561144776	0.222118788562467	1.46392712097789e-05	16.2820641863324	1490.70714834743	1	7	1	0	0	0	0
471.8947543245	2.5187401972413	reward_rtpj	474.413494521741	92	1	15	10	750	250	250	250	0	0	0	0	2000	0	BLOCKED	0.75	-1	3	1	distressed	At this moment	4	3	11	231	RTPJ	673.593832865357	0	9011.18793367339	-6.93220822573357	0.00156781201837486	24.3858312813984	1446.05742821473	0	1171.7920204033	0.347834486219938	-2.13416624647233e-05	28.9460177819229	1449.45964642583	0	8	1	0	0	0	0
475.414408153076	6.02152481579407	panas_none	481.43593296887	93	5	16	10	n/a	n/a	n/a	n/a	n/a	n/a	n/a	n/a	2000	0	BLOCKED	n/a	n/a	+	0	irritable	At this moment	2	3	11	231	NONE	n/a	0	1515.1490509767	-0.562063069710589	0.000125692115534309	10.7534776505135	895.794007490637	0.0722521137586472	595.250778029621	1.42904295513911	-0.000766744821097383	43.1440275386237	1177.77630488815	3	1	0	1	0	1	0
482.419968222134	6.02166656793281	panas_none	488.441634790067	94	5	16	10	n/a	n/a	n/a	n/a	n/a	n/a	n/a	n/a	2000	0	BLOCKED	n/a	n/a	+	0	proud	At this moment	3	3	11	231	NONE	n/a	0	-591.886197670491	1.64523714005398	-0.000408923646758048	16.1561112897426	1037.72284644195	0	1385.0439019577	-0.455996074442523	0.000158086006172365	15.2725687202481	1134.77940046118	0	2	0	1	0	1	0
489.42576313429	6.02165598941593	panas_none	495.447419123705	95	5	16	10	n/a	n/a	n/a	n/a	n/a	n/a	n/a	n/a	2000	0	BLOCKED	n/a	n/a	+	0	hostile	At this moment	1	3	11	231	NONE	n/a	0	3008.73891379106	-1.93673386153241	0.000462547972079695	13.5035001812718	1006.61423220974	0	1103.67927791687	-0.0505113659629451	2.85207905280014e-05	14.8940494236031	1085.43581860108	2	3	0	1	0	1	0
496.431383148279	11.6929221957065	panas_none	508.124305343986	96	5	16	10	n/a	n/a	n/a	n/a	n/a	n/a	n/a	n/a	2000	0	BLOCKED	n/a	n/a	+	0	excited	At this moment	2	3	11	231	NONE	n/a	0.434456928838951	n/a	n/a	n/a	n/a	1505.17439293598	0.0614911606456572	911.607044839454	0.731313331347066	-0.000368054220898842	28.5665735733277	1226.99426699427	6	4	0	1	0	1	0
