onset	duration	trial_type	offset	trial	block	blockCntr	frequency	amplitude_1	amplitude_2	amplitude_3	amplitude_4	amplitude_5	amplitude_6	amplitude_7	amplitude_8	transition	sham	mode	rewardFraction	guess	outcome	correct	word	when	answer	runNr	scanNr	subjectNr	target	reactionTime	outcomeEyeClosed	outcomePupilArea	outcomeDilation	guessEyeClosed	guessPupilArea	guessDilation	nrBlinks	trialInBlock	isReward	isPanas	isPunish	beforePanasReward	beforePanasVLPFC
20.3507205381244	2.51203905870765	reward_rtpj	22.8627595968321	1	1	1	10	750	250	250	250	0	0	0	0	2000	0	BLOCKED	0.75	-1	8	-1	n/a	n/a	n/a	3	10	231	RTPJ	1101.82951942459	0	1578.84644194757	-0.2825	0	1455.74096848578	0.284615384615385	1	1	1	0	0	0	0
23.8636083465926	2.51880966284126	reward_rtpj	26.3824180094339	2	1	1	10	750	250	250	250	0	0	0	0	2000	0	BLOCKED	0.75	1	10	1	n/a	n/a	n/a	3	10	231	RTPJ	506.983584962785	0.431960049937578	1418.37582417582	-0.418141592920354	0.230591852421214	1391.12887112887	0.303303303303303	2	2	1	0	0	0	0
27.3663432461098	2.51879908432439	reward_rtpj	29.8851423304342	3	1	1	10	750	250	250	250	0	0	0	0	2000	0	BLOCKED	0.75	1	10	1	n/a	n/a	n/a	3	10	231	RTPJ	274.155693218112	0	1494.26716604245	-0.45375	0	1581.82628747118	0.330769230769231	0	3	1	0	0	0	0
30.8692576278187	2.5187141035609	reward_rtpj	33.3879717313796	4	1	1	10	750	250	250	250	0	0	0	0	2000	0	BLOCKED	0.75	-1	0	1	n/a	n/a	n/a	3	10	231	RTPJ	525.735418573022	0.450686641697878	1602.46590909091	-0.269406392694064	0	1634.40737893928	0.316153846153846	1	4	1	0	0	0	0
34.3888705527931	2.51866685284674	reward_rtpj	36.9075374056399	5	1	1	10	750	250	250	250	0	0	0	0	2000	0	BLOCKED	0.75	-1	0	1	n/a	n/a	n/a	3	10	231	RTPJ	491.913428228348	0.421972534332085	1590.98920086393	-0.709327548806941	0	1590.07071483474	0.309230769230769	1	5	1	0	0	0	0
37.8915634908564	2.51872573993355	reward_rtpj	40.41028923079	6	1	1	10	750	250	250	250	0	0	0	0	2000	0	BLOCKED	0.75	-1	1	1	n/a	n/a	n/a	3	10	231	RTPJ	540.58448427543	0	1539.77528089888	-0.42	0	1572.61721752498	0.245384615384615	0	6	1	0	0	0	0
41.4117116888426	2.53489077327401	reward_rtpj	43.9466024621166	7	1	1	10	750	250	250	250	0	0	0	0	2000	0	BLOCKED	0.75	1	1	-1	n/a	n/a	n/a	3	10	231	RTPJ	542.26964219287	0.0774032459425718	1722.66441136671	-0.14769647696477	0	1480.04842428901	0.343076923076923	1	7	1	0	0	0	0
44.9307159964144	2.51873843415454	reward_rtpj	47.449454430569	8	1	1	10	750	250	250	250	0	0	0	0	2000	0	BLOCKED	0.75	1	8	1	n/a	n/a	n/a	3	10	231	RTPJ	523.451869152486	0	1520.84394506866	-0.6	0	1596.17524980784	0.396153846153846	0	8	1	0	0	0	0
48.4334586535133	6.02181219886616	panas_none	54.4552708523795	9	5	2	n/a	n/a	n/a	n/a	n/a	n/a	n/a	n/a	n/a	n/a	n/a	n/a	n/a	n/a	n/a	n/a	alert	At this moment	4	3	10	231	NONE	n/a	0	879.489388264669	-0.04125	0.169869331283628	1118.69907407407	-0.0518999073215941	2	1	0	1	0	1	0
55.4559841971062	6.02153962571919	panas_none	61.4775238228254	10	5	2	n/a	n/a	n/a	n/a	n/a	n/a	n/a	n/a	n/a	n/a	n/a	n/a	n/a	n/a	n/a	n/a	inspired	At this moment	1	3	10	231	NONE	n/a	0	972.406991260924	0.08125	0	1018.96848578017	0.0561538461538462	1	2	0	1	0	1	0
62.461684960451	6.02155302517489	panas_none	68.4832379856259	11	5	2	n/a	n/a	n/a	n/a	n/a	n/a	n/a	n/a	n/a	n/a	n/a	n/a	n/a	n/a	n/a	n/a	afraid	At this moment	1	3	10	231	NONE	n/a	0	1045.68913857678	0.17375	0	1171.16372021522	-0.116153846153846	1	3	0	1	0	1	0
69.4840296113864	8.84052496248484	panas_none	78.3245545738712	12	5	2	n/a	n/a	n/a	n/a	n/a	n/a	n/a	n/a	n/a	n/a	n/a	n/a	n/a	n/a	n/a	n/a	n/a	n/a	n/a	3	10	231	NONE	n/a	0.0586766541822722	1447.02122015915	-0.139442231075697	0.278247501921599	1449.94036208733	0.0790598290598291	4	4	0	1	0	1	0
79.3253814613596	2.51879802647234	punish_vlpfc	81.8441794878319	13	4	3	10	0	0	0	0	250	250	250	750	2000	0	BLOCKED	0.25	1	9	1	n/a	n/a	n/a	3	10	231	VLPFC	640.005980391055	0	1342.92759051186	-0.1075	0	1132.68485780169	0.482307692307692	0	1	0	0	1	0	0
82.8281406914704	2.51883928269149	punish_vlpfc	85.3469799741618	14	4	3	10	0	0	0	0	250	250	250	750	2000	0	BLOCKED	0.25	1	9	1	n/a	n/a	n/a	3	10	231	VLPFC	673.467948500067	0	1399.57428214732	-0.42875	0	1411.72021521906	0.291538461538462	0	2	0	0	1	0	0
86.3311224230751	2.51872186114267	punish_vlpfc	88.8498442842178	15	4	3	10	0	0	0	0	250	250	250	750	2000	0	BLOCKED	0.25	1	4	-1	n/a	n/a	n/a	3	10	231	VLPFC	375.015162542462	0.481897627965044	1665.80240963855	0.0656934306569343	0	1441.37817063797	0.317692307692308	1	3	0	0	1	0	0
89.8339352510087	2.51869753055274	punish_vlpfc	92.3526327815615	16	4	3	10	0	0	0	0	250	250	250	750	2000	0	BLOCKED	0.25	-1	6	-1	n/a	n/a	n/a	3	10	231	VLPFC	557.947711091489	0.379525593008739	1655.35412474849	0.00604838709677419	0	1491.29592621061	0.249230769230769	1	4	0	0	1	0	0
93.3368023819998	2.51867355258018	punish_vlpfc	95.85547593458	17	4	3	10	0	0	0	0	250	250	250	750	2000	0	BLOCKED	0.25	1	2	-1	n/a	n/a	n/a	3	10	231	VLPFC	523.322458621114	0.791510611735331	1794.95209580838	0.144578313253012	0	1553.01537279016	0.359230769230769	1	5	0	0	1	0	0
96.8395570280887	2.51876523306593	punish_vlpfc	99.3583222611547	18	4	3	10	0	0	0	0	250	250	250	750	2000	0	BLOCKED	0.25	1	1	-1	n/a	n/a	n/a	3	10	231	VLPFC	223.196856345981	0.694132334581773	1924.71020408163	0.163934426229508	0	1622.69331283628	0.347692307692308	1	6	0	0	1	0	0
100.342477404289	2.51881636256725	punish_vlpfc	102.861293766856	19	4	3	10	0	0	0	0	250	250	250	750	2000	0	BLOCKED	0.25	-1	10	-1	n/a	n/a	n/a	3	10	231	VLPFC	240.204292338341	0.694132334581773	1902.36326530612	0.497942386831276	0	1648.08301306687	0.375384615384615	1	7	0	0	1	0	0
103.84539495955	2.51872538731619	punish_vlpfc	106.364120346867	20	4	3	10	0	0	0	0	250	250	250	750	2000	0	BLOCKED	0.25	1	4	-1	n/a	n/a	n/a	3	10	231	VLPFC	690.007461380213	0.772784019975031	1627.24175824176	2.25423728813559	0	1504.05611068409	0.36	1	8	0	0	1	0	0
107.364786440883	6.02166374699398	panas_none	113.386450187877	21	5	4	n/a	n/a	n/a	n/a	n/a	n/a	n/a	n/a	n/a	n/a	n/a	n/a	n/a	n/a	n/a	n/a	jittery	At this moment	1	3	10	231	NONE	n/a	0	927.976279650437	0.1125	0	1300.24673328209	-0.673076923076923	1	1	0	1	0	0	1
114.370571479756	6.02146592870727	panas_none	120.392037408464	22	5	4	n/a	n/a	n/a	n/a	n/a	n/a	n/a	n/a	n/a	n/a	n/a	n/a	n/a	n/a	n/a	n/a	alert	At this moment	3	3	10	231	NONE	n/a	0	932.430711610487	0.08375	0	1111.49730976172	-0.176153846153846	2	2	0	1	0	0	1
121.376654832833	6.02113200015575	panas_none	127.397786832988	23	5	4	n/a	n/a	n/a	n/a	n/a	n/a	n/a	n/a	n/a	n/a	n/a	n/a	n/a	n/a	n/a	n/a	afraid	At this moment	1	3	10	231	NONE	n/a	0.518102372034956	957.336787564767	0.0415584415584416	0	1015.68946963874	-0.0269230769230769	2	3	0	1	0	0	1
128.381897898965	11.5928166221008	panas_none	139.974714521065	24	5	4	n/a	n/a	n/a	n/a	n/a	n/a	n/a	n/a	n/a	n/a	n/a	n/a	n/a	n/a	n/a	n/a	n/a	n/a	n/a	3	10	231	NONE	n/a	0.233458177278402	1299.2345276873	0.159869494290375	0.302843966179862	1114.76074972437	0.244198895027624	6	4	0	1	0	0	1
140.97544902283	2.51872256637736	reward_vlpfc	143.494171589207	25	2	5	10	0	0	0	0	250	250	250	750	2000	0	BLOCKED	0.75	1	6	1	n/a	n/a	n/a	3	10	231	VLPFC	1157.94467858225	0	1223.80274656679	-0.23375	0	1071.61414296695	0.354615384615385	0	1	1	0	0	0	0
144.495376835022	2.51840450560303	reward_vlpfc	147.013781340625	26	2	5	10	0	0	0	0	250	250	250	750	2000	0	BLOCKED	0.75	1	10	1	n/a	n/a	n/a	3	10	231	VLPFC	339.600047390908	0.515605493133583	1478.75773195876	0.493506493506494	0	1274.53727901614	0.421538461538462	1	2	1	0	0	0	0
147.997923789535	2.51875677025316	reward_vlpfc	150.516680559788	27	2	5	10	0	0	0	0	250	250	250	750	2000	0	BLOCKED	0.75	1	3	-1	n/a	n/a	n/a	3	10	231	VLPFC	324.232634305954	0.589263420724095	1714.14285714286	-0.291411042944785	0	1457.92851652575	0.264615384615385	1	3	1	0	0	0	0
151.500872375119	2.51866297405584	reward_vlpfc	154.019535349175	28	2	5	10	0	0	0	0	250	250	250	750	2000	0	BLOCKED	0.75	-1	2	1	n/a	n/a	n/a	3	10	231	VLPFC	391.211226206273	0.465667915106117	1624.29205607477	-0.662763466042155	0	1470.21521906226	0.305384615384615	1	4	1	0	0	0	0
155.003573775999	2.51875677024572	reward_vlpfc	157.522330546245	29	2	5	10	0	0	0	0	250	250	250	750	2000	0	BLOCKED	0.75	-1	0	1	n/a	n/a	n/a	3	10	231	VLPFC	273.571053788066	0	1529.13607990012	-0.365	0	1530.43197540354	0.333076923076923	0	5	1	0	0	0	0
158.506515309233	2.51867214211077	reward_vlpfc	161.025187451344	30	2	5	10	0	0	0	0	250	250	250	750	2000	0	BLOCKED	0.75	1	1	-1	n/a	n/a	n/a	3	10	231	VLPFC	573.686782777309	0.571785268414482	1653.33527696793	0.0994152046783626	0	1395.60415065334	0.230769230769231	1	6	1	0	0	0	0
162.009336952597	2.51874301818015	reward_vlpfc	164.528079970777	31	2	5	10	0	0	0	0	250	250	250	750	2000	0	BLOCKED	0.75	-1	0	1	n/a	n/a	n/a	3	10	231	VLPFC	639.930520296097	0	1606.07865168539	-0.345	0.230591852421214	1698.87912087912	0.108108108108108	1	7	1	0	0	0	0
165.512179400384	2.5186940043792	reward_vlpfc	168.030873404764	32	2	5	10	0	0	0	0	250	250	250	750	2000	0	BLOCKED	0.75	1	8	1	n/a	n/a	n/a	3	10	231	VLPFC	607.014051090926	0	1502.71785268414	-0.3575	0.230591852421214	1523.3006993007	0.177177177177177	1	8	1	0	0	0	0
169.031742958941	6.02153398384155	panas_none	175.053276942782	33	5	6	n/a	n/a	n/a	n/a	n/a	n/a	n/a	n/a	n/a	n/a	n/a	n/a	n/a	n/a	n/a	n/a	hostile	At this moment	1	3	10	231	NONE	n/a	0	935.151061173533	0.0375	0.116064565718678	1198.79913043478	-0.0522193211488251	2	1	0	1	0	1	1
176.037375667155	6.02167785168442	panas_none	182.059053518839	34	5	6	n/a	n/a	n/a	n/a	n/a	n/a	n/a	n/a	n/a	n/a	n/a	n/a	n/a	n/a	n/a	n/a	upset	At this moment	1	3	10	231	NONE	n/a	0.297128589263421	816.772646536412	0.0800711743772242	0	946.945426594927	-0.106923076923077	1	2	0	1	0	1	1
183.043053157758	6.02152728411554	panas_none	189.064580441874	35	5	6	n/a	n/a	n/a	n/a	n/a	n/a	n/a	n/a	n/a	n/a	n/a	n/a	n/a	n/a	n/a	n/a	inspired	At this moment	1	3	10	231	NONE	n/a	0	914.042446941323	0.13375	0	875.729438893159	0.0130769230769231	2	3	0	1	0	1	1
190.048900609888	13.7444258262552	panas_none	203.793326436143	36	5	6	n/a	n/a	n/a	n/a	n/a	n/a	n/a	n/a	n/a	n/a	n/a	n/a	n/a	n/a	n/a	n/a	n/a	n/a	n/a	3	10	231	NONE	n/a	0.0549313358302122	1203.74768824306	0.184105960264901	0.283627978478094	1059.34227467811	0.122448979591837	6	4	0	1	0	1	1
204.794183648717	2.5187155140303	punish_vlpfc	207.312899162747	37	4	7	10	0	0	0	0	250	250	250	750	2000	0	BLOCKED	0.25	1	9	1	n/a	n/a	n/a	3	10	231	VLPFC	706.624902676791	0.374531835205993	1338.27145708583	0.318637274549098	0	1058.73405073021	0.414615384615385	1	1	0	0	1	0	0
208.296923484877	2.51879379506411	punish_vlpfc	210.815717279941	38	4	7	10	0	0	0	0	250	250	250	750	2000	0	BLOCKED	0.25	1	2	-1	n/a	n/a	n/a	3	10	231	VLPFC	423.610405877233	0.575530586766542	1790.8	0.0680473372781065	0	1483.08839354343	0.285384615384615	1	2	0	0	1	0	0
211.79987171784	2.51869682531805	punish_vlpfc	214.318568543158	39	4	7	10	0	0	0	0	250	250	250	750	2000	0	BLOCKED	0.25	-1	6	-1	n/a	n/a	n/a	3	10	231	VLPFC	257.274141587317	0.670411985018727	1724.80303030303	0.334600760456274	0.303612605687932	1606.83222958057	0.210176991150442	2	3	0	0	1	0	0
215.321056610588	2.51708395393936	punish_vlpfc	217.838140564527	40	4	7	10	0	0	0	0	250	250	250	750	2000	0	BLOCKED	0.25	-1	10	-1	n/a	n/a	n/a	3	10	231	VLPFC	888.781340621412	0	1732.60174781523	-0.1525	0.230591852421214	1628.36263736264	0.196196196196196	1	4	0	0	1	0	0
218.82239690882	2.51854907868056	punish_vlpfc	221.3409459875	41	4	7	10	0	0	0	0	250	250	250	750	2000	0	BLOCKED	0.25	-1	0	1	n/a	n/a	n/a	3	10	231	VLPFC	440.026855327189	0	1414.95630461923	-0.28375	0.353574173712529	1486.55529131986	0.184743742550656	1	5	0	0	1	0	0
222.3249738358	2.51879414768143	punish_vlpfc	224.843767983481	42	4	7	10	0	0	0	0	250	250	250	750	2000	0	BLOCKED	0.25	-1	8	-1	n/a	n/a	n/a	3	10	231	VLPFC	590.661072745919	0.508114856429463	1703.68274111675	0.0763358778625954	0	1445.05534204458	0.259230769230769	1	6	0	0	1	0	0
225.827941462714	2.51868730465324	punish_vlpfc	228.346628767367	43	4	7	10	0	0	0	0	250	250	250	750	2000	0	BLOCKED	0.25	1	3	-1	n/a	n/a	n/a	3	10	231	VLPFC	322.964975234121	0.293383270911361	1643.12897526502	0.0513274336283186	0.303612605687932	1538.33002207506	0.243362831858407	2	7	0	0	1	0	0
229.330796957336	2.51868836250156	punish_vlpfc	231.849485319838	44	4	7	10	0	0	0	0	250	250	250	750	2000	0	BLOCKED	0.25	1	3	-1	n/a	n/a	n/a	3	10	231	VLPFC	589.905766561627	0.610486891385768	1657.07051282051	0.144694533762058	0.245964642582629	1498.56880733945	0.370786516853933	2	8	0	0	1	0	0
232.850278356072	6.02158335025982	panas_none	238.871861706331	45	5	8	n/a	n/a	n/a	n/a	n/a	n/a	n/a	n/a	n/a	n/a	n/a	n/a	n/a	n/a	n/a	n/a	guilty	At this moment	1	3	10	231	NONE	n/a	0	980.806491885144	0.10375	0	1248.37432744043	-0.530769230769231	2	1	0	1	0	0	1
239.856029191069	6.02151987915116	panas_none	245.87754907022	46	5	8	n/a	n/a	n/a	n/a	n/a	n/a	n/a	n/a	n/a	n/a	n/a	n/a	n/a	n/a	n/a	n/a	afraid	At this moment	1	3	10	231	NONE	n/a	0	1432.10736579276	-0.08375	0.240584166026134	1531.46761133603	0.216243654822335	3	2	0	1	0	0	1
246.861738769848	6.02170993985607	panas_none	252.883448709704	47	5	8	n/a	n/a	n/a	n/a	n/a	n/a	n/a	n/a	n/a	n/a	n/a	n/a	n/a	n/a	n/a	n/a	scared	At this moment	1	3	10	231	NONE	n/a	0	1098.6429463171	-0.08875	0	1364.21829362029	-0.256923076923077	2	3	0	1	0	0	1
253.867376767319	6.73884424754604	panas_none	260.606221014865	48	5	8	n/a	n/a	n/a	n/a	n/a	n/a	n/a	n/a	n/a	n/a	n/a	n/a	n/a	n/a	n/a	n/a	n/a	n/a	n/a	3	10	231	NONE	n/a	0	1300.70287141074	0.0475	0.196771714066103	1163.92918660287	0.240421455938697	2	4	0	1	0	0	1
261.590365226861	2.51870176195729	reward_vlpfc	264.109066988818	49	2	9	10	0	0	0	0	250	250	250	750	2000	0	BLOCKED	0.75	1	6	1	n/a	n/a	n/a	3	10	231	VLPFC	991.087598592043	0	1162.21598002497	-0.3375	0.417371252882398	1146.65303430079	0.470198675496689	1	1	1	0	0	0	0
265.093166771043	2.51875818071886	reward_vlpfc	267.611924951762	50	2	9	10	0	0	0	0	250	250	250	750	2000	0	BLOCKED	0.75	1	6	1	n/a	n/a	n/a	3	10	231	VLPFC	473.161242004484	0.455680399500624	1380.06651376147	-0.665898617511521	0	1216.3996925442	0.357692307692308	1	2	1	0	0	0	0
268.595971841399	2.51883434604855	reward_vlpfc	271.114806187447	51	2	9	10	0	0	0	0	250	250	250	750	2000	0	BLOCKED	0.75	1	8	1	n/a	n/a	n/a	3	10	231	VLPFC	306.971313878894	0	1387.21847690387	-0.45	0	1369.10146041507	0.315384615384615	0	3	1	0	0	0	0
272.098902796116	2.5187401972413	reward_vlpfc	274.617642993357	52	2	9	10	0	0	0	0	250	250	250	750	2000	0	BLOCKED	0.75	-1	2	1	n/a	n/a	n/a	3	10	231	VLPFC	557.977330941707	0.496878901373283	1467.46153846154	0.1175	0	1340.5049961568	0.294615384615385	1	4	1	0	0	0	0
275.601753706712	2.51879450030253	reward_vlpfc	278.120548207015	53	2	9	10	0	0	0	0	250	250	250	750	2000	0	BLOCKED	0.75	-1	10	-1	n/a	n/a	n/a	3	10	231	VLPFC	307.099666569382	0.474406991260924	1653.85510688836	-0.355608591885442	0	1454.84089162183	0.258461538461538	1	5	1	0	0	0	0
279.104537972651	2.51893272626398	reward_vlpfc	281.623470698915	54	2	9	10	0	0	0	0	250	250	250	750	2000	0	BLOCKED	0.75	1	9	1	n/a	n/a	n/a	3	10	231	VLPFC	640.455567404628	0	1468.44319600499	-0.32125	0.345887778631822	1572.99647473561	-0.0588928150765607	1	6	1	0	0	0	0
282.607635715336	2.51858716134728	reward_vlpfc	285.126222876683	55	2	9	10	0	0	0	0	250	250	250	750	2000	0	BLOCKED	0.75	1	9	1	n/a	n/a	n/a	3	10	231	VLPFC	356.712563328445	0.374531835205993	1519.59281437126	-0.260521042084168	0	1422.70714834743	0.323846153846154	1	7	1	0	0	0	0
286.110314548709	2.51869118343666	reward_vlpfc	288.629005732145	56	2	9	10	0	0	0	0	250	250	250	750	2000	0	BLOCKED	0.75	-1	6	-1	n/a	n/a	n/a	3	10	231	VLPFC	406.719333581626	0.564294631710362	1752.04871060172	0.0632183908045977	0	1466.94158339739	0.314615384615385	1	8	1	0	0	0	0
289.62976809068	6.02172404454649	panas_none	295.651492135227	57	5	10	n/a	n/a	n/a	n/a	n/a	n/a	n/a	n/a	n/a	n/a	n/a	n/a	n/a	n/a	n/a	n/a	jittery	At this moment	1	3	10	231	NONE	n/a	0.431960049937578	925.314285714286	0.30242825607064	0	1255.96848578017	-0.483846153846154	4	1	0	1	0	1	1
296.635641636483	6.02144900308173	panas_none	302.657090639565	58	5	10	n/a	n/a	n/a	n/a	n/a	n/a	n/a	n/a	n/a	n/a	n/a	n/a	n/a	n/a	n/a	n/a	irritable	At this moment	3	3	10	231	NONE	n/a	0.208489388264669	809.845425867508	-0.0363349131121643	0	1065.82551883167	-0.13	1	2	0	1	0	1	1
303.641214047145	6.02163306929168	panas_none	309.662847116437	59	5	10	n/a	n/a	n/a	n/a	n/a	n/a	n/a	n/a	n/a	n/a	n/a	n/a	n/a	n/a	n/a	n/a	upset	At this moment	1	3	10	231	NONE	n/a	0	1163.51810237203	0.0025	0	1166.47732513451	0.196153846153846	1	3	0	1	0	1	1
310.646902116273	13.5610736631565	panas_none	324.207975779429	60	5	10	n/a	n/a	n/a	n/a	n/a	n/a	n/a	n/a	n/a	n/a	n/a	n/a	n/a	n/a	n/a	n/a	n/a	n/a	n/a	3	10	231	NONE	n/a	0	1347.99001248439	0.07625	0	1202.49807840123	0.149230769230769	5	4	0	1	0	1	1
325.192090371575	2.51871939282489	punish_rtpj	327.7108097644	61	3	11	10	750	250	250	250	0	0	0	0	2000	0	BLOCKED	0.25	1	6	1	n/a	n/a	n/a	3	10	231	RTPJ	1473.50892262906	0	1525.88264669164	-0.29125	0.230591852421214	1499.27672327672	0.363363363363363	1	1	0	0	1	0	0
328.694985006716	2.51871657188241	punish_rtpj	331.213701578598	62	3	11	10	750	250	250	250	0	0	0	0	2000	0	BLOCKED	0.25	-1	7	-1	n/a	n/a	n/a	3	10	231	RTPJ	423.470769438893	0.448189762796504	1609.35294117647	-0.148063781321185	0	1427.03228285934	0.290769230769231	1	2	0	0	1	0	0
332.197838385634	2.51870810906962	punish_rtpj	334.716546494704	63	3	11	10	750	250	250	250	0	0	0	0	2000	0	BLOCKED	0.25	1	3	-1	n/a	n/a	n/a	3	10	231	RTPJ	524.995980165899	0.546816479400749	1608.47658402204	-0.00552486187845304	0.288239815526518	1468.17926565875	0.207158351409978	2	3	0	0	1	0	0
335.70062653036	2.51876629091799	punish_rtpj	338.219392821278	64	3	11	10	750	250	250	250	0	0	0	0	2000	0	BLOCKED	0.25	1	6	1	n/a	n/a	n/a	3	10	231	RTPJ	657.00953759253	0.544319600499376	1564.94520547945	-0.699724517906336	0.329746348962337	1582.10435779817	0.153049482163406	2	4	0	0	1	0	0
339.203507413425	2.51872186114264	punish_rtpj	341.722229274567	65	3	11	10	750	250	250	250	0	0	0	0	2000	0	BLOCKED	0.25	1	3	-1	n/a	n/a	n/a	3	10	231	RTPJ	539.708230372518	0.664169787765293	1607.90334572491	0.108208955223881	0	1406.14142966948	0.199230769230769	1	5	0	0	1	0	0
342.706391117431	2.51868730464952	punish_rtpj	345.225078422081	66	3	11	10	750	250	250	250	0	0	0	0	2000	0	BLOCKED	0.25	1	1	-1	n/a	n/a	n/a	3	10	231	RTPJ	573.74531724304	0.651685393258427	1560.18279569892	0.276978417266187	0.295157571099154	1452.6052344602	0.175956284153005	2	6	0	0	1	0	0
346.209117201518	2.51876276474445	punish_rtpj	348.727879966263	67	3	11	10	750	250	250	250	0	0	0	0	2000	0	BLOCKED	0.25	-1	10	-1	n/a	n/a	n/a	3	10	231	RTPJ	157.120612032712	0.493133583021223	1599.41871921182	0.0518518518518519	0.373558800922367	1488.22576687117	0.215252152521525	2	7	0	0	1	0	0
349.728782313846	2.51873490798471	punish_rtpj	352.247517221831	68	3	11	10	750	250	250	250	0	0	0	0	2000	0	BLOCKED	0.25	1	4	-1	n/a	n/a	n/a	3	10	231	RTPJ	774.440960589796	0.747815230961298	1662.22772277228	0.248756218905473	0	1432.03074558032	0.321538461538462	1	8	0	0	1	0	0
353.248293685053	6.02156889294832	panas_none	359.269862578001	69	5	12	n/a	n/a	n/a	n/a	n/a	n/a	n/a	n/a	n/a	n/a	n/a	n/a	n/a	n/a	n/a	n/a	attentive	At this moment	3	3	10	231	NONE	n/a	0	813.701622971286	0.06375	0	1249.64488854727	-0.671538461538462	1	1	0	1	0	0	0
360.253965533778	6.02162954312195	panas_none	366.2755950769	70	5	12	n/a	n/a	n/a	n/a	n/a	n/a	n/a	n/a	n/a	n/a	n/a	n/a	n/a	n/a	n/a	n/a	proud	At this moment	2	3	10	231	NONE	n/a	0	1181.52808988764	-0.0675	0	1088.70407378939	0.126923076923077	1	2	0	1	0	0	0
367.259908545189	6.021282215111	panas_none	373.2811907603	71	5	12	n/a	n/a	n/a	n/a	n/a	n/a	n/a	n/a	n/a	n/a	n/a	n/a	n/a	n/a	n/a	n/a	guilty	At this moment	1	3	10	231	NONE	n/a	0	950.973782771536	0.09	0	1007.16756341276	-0.0692307692307692	2	3	0	1	0	0	0
374.265377638988	9.17409631247074	panas_none	383.439473951459	72	5	12	n/a	n/a	n/a	n/a	n/a	n/a	n/a	n/a	n/a	n/a	n/a	n/a	n/a	n/a	n/a	n/a	n/a	n/a	n/a	3	10	231	NONE	n/a	0.424469413233458	1475.08242950108	-0.0762527233115468	0.230591852421214	1384.81818181818	0.189189189189189	5	4	0	1	0	0	0
384.423853006557	2.51851628527419	punish_rtpj	386.942369291831	73	3	13	10	750	250	250	250	0	0	0	0	2000	0	BLOCKED	0.25	1	2	-1	n/a	n/a	n/a	3	10	231	RTPJ	740.217691797763	0.546816479400749	1608.09641873278	0.00831024930747922	0.358186010760953	1437.38562874251	0.395432692307692	2	1	0	0	1	0	0
387.926581558965	2.51866085835172	punish_rtpj	390.445242417317	74	3	13	10	750	250	250	250	0	0	0	0	2000	0	BLOCKED	0.25	1	0	-1	n/a	n/a	n/a	3	10	231	RTPJ	1057.32005235925	0.682896379525593	1619.72047244094	-0.075098814229249	0	1386.71560338201	0.283846153846154	1	2	0	0	1	0	0
391.429275907498	2.51866896855455	punish_rtpj	393.947944876052	75	3	13	10	750	250	250	250	0	0	0	0	2000	0	BLOCKED	0.25	-1	8	-1	n/a	n/a	n/a	3	10	231	RTPJ	507.790373265743	0.614232209737828	1668.84466019417	0.188311688311688	0.252113758647194	1439.49331963001	0.289989680082559	2	3	0	0	1	0	0
394.932113066021	2.51879026889429	punish_rtpj	397.450903334916	76	3	13	10	750	250	250	250	0	0	0	0	2000	0	BLOCKED	0.25	1	4	-1	n/a	n/a	n/a	3	10	231	RTPJ	356.183637432754	0.576779026217228	1666.05899705015	-0.136498516320475	0	1403.14219830899	0.326153846153846	1	4	0	0	1	0	0
398.435081045557	2.51866614761207	punish_rtpj	400.953747193169	77	3	13	10	750	250	250	250	0	0	0	0	2000	0	BLOCKED	0.25	1	0	-1	n/a	n/a	n/a	3	10	231	RTPJ	339.679033655673	0	1626.78152309613	0.03625	0	1407.68178324366	0.292307692307692	0	5	0	0	1	0	0
401.937901983686	2.51877087494358	punish_rtpj	404.456672858629	78	3	13	10	750	250	250	250	0	0	0	0	2000	0	BLOCKED	0.25	-1	0	1	n/a	n/a	n/a	3	10	231	RTPJ	573.498132541776	0	1348.56928838951	-0.53125	0	1457.22674865488	0.285384615384615	0	6	0	0	1	0	0
405.440684839152	2.51892461607235	punish_rtpj	407.959609455224	79	3	13	10	750	250	250	250	0	0	0	0	2000	0	BLOCKED	0.25	-1	10	-1	n/a	n/a	n/a	3	10	231	RTPJ	373.145233176649	0.609238451935081	1581.74440894569	-0.112540192926045	0	1394.29362029208	0.281538461538462	1	7	0	0	1	0	0
408.943581237379	2.51873208704217	punish_rtpj	411.462313324422	80	3	13	10	750	250	250	250	0	0	0	0	2000	0	BLOCKED	0.25	-1	2	1	n/a	n/a	n/a	3	10	231	RTPJ	306.499864593148	0.459425717852684	1479.38337182448	-0.0953488372093023	0	1436.17217524981	0.153846153846154	1	8	0	0	1	0	0
412.463268211979	6.02173039165513	panas_none	418.484998603635	81	5	14	n/a	n/a	n/a	n/a	n/a	n/a	n/a	n/a	n/a	n/a	n/a	n/a	n/a	n/a	n/a	n/a	upset	At this moment	2	3	10	231	NONE	n/a	0	911.117353308364	0.05375	0	1155.42582628747	-0.318461538461538	1	1	0	1	0	0	0
419.468953812782	6.02148285433651	panas_none	425.490436667118	82	5	14	n/a	n/a	n/a	n/a	n/a	n/a	n/a	n/a	n/a	n/a	n/a	n/a	n/a	n/a	n/a	n/a	guilty	At this moment	1	3	10	231	NONE	n/a	0	1165.29588014981	-0.075	0	1276.6095311299	0.0215384615384615	1	2	0	1	0	0	0
426.474458520927	6.02168384618312	panas_none	432.49614236711	83	5	14	n/a	n/a	n/a	n/a	n/a	n/a	n/a	n/a	n/a	n/a	n/a	n/a	n/a	n/a	n/a	n/a	afraid	At this moment	1	3	10	231	NONE	n/a	0.0374531835205993	966.984435797665	0.0350649350649351	0	1065.27671022291	-0.00769230769230769	2	3	0	1	0	0	0
433.480238623157	12.9106531318054	panas_none	446.390891754963	84	5	14	n/a	n/a	n/a	n/a	n/a	n/a	n/a	n/a	n/a	n/a	n/a	n/a	n/a	n/a	n/a	n/a	n/a	n/a	n/a	3	10	231	NONE	n/a	0	1389.52559300874	0.0825	0.338201383551115	1287.9012775842	0.211874272409779	6	4	0	1	0	0	0
447.374962975189	2.51872080329059	reward_rtpj	449.89368377848	85	1	15	10	750	250	250	250	0	0	0	0	2000	0	BLOCKED	0.75	1	4	-1	n/a	n/a	n/a	3	10	231	RTPJ	806.90184827894	0	1620.80274656679	-0.2325	0.334358186010761	1535.55889145497	0.24449594438007	1	1	1	0	0	0	0
450.877650623992	2.51876875923944	reward_rtpj	453.396419383232	86	1	15	10	750	250	250	250	0	0	0	0	2000	0	BLOCKED	0.75	-1	1	1	n/a	n/a	n/a	3	10	231	RTPJ	624.278545074165	0.318352059925094	1452.54395604396	-0.46605504587156	0	1328.30053804766	0.326153846153846	1	2	1	0	0	0	0
454.380593920317	2.51867884183679	reward_rtpj	456.899272762153	87	1	15	10	750	250	250	250	0	0	0	0	2000	0	BLOCKED	0.75	-1	2	1	n/a	n/a	n/a	3	10	231	RTPJ	290.871162112802	0.408239700374532	1392.56751054852	-0.25531914893617	0	1439.69792467333	0.301538461538462	1	3	1	0	0	0	0
457.883424731731	2.51869224129246	reward_rtpj	460.402116973024	88	1	15	10	750	250	250	250	0	0	0	0	2000	0	BLOCKED	0.75	1	10	1	n/a	n/a	n/a	3	10	231	RTPJ	875.827592723072	0.423220973782772	1579.40476190476	-0.427015250544662	0	1497.42121445042	0.256923076923077	1	4	1	0	0	0	0
461.386213581689	2.51880331573261	reward_rtpj	463.905016897421	89	1	15	10	750	250	250	250	0	0	0	0	2000	0	BLOCKED	0.75	-1	1	1	n/a	n/a	n/a	3	10	231	RTPJ	457.069905668497	0.392009987515606	1446.73100616016	-0.152577319587629	0	1454.05226748655	0.153846153846154	1	5	1	0	0	0	0
464.88910821683	2.51881318901479	reward_rtpj	467.407921405844	90	1	15	10	750	250	250	250	0	0	0	0	2000	0	BLOCKED	0.75	-1	6	-1	n/a	n/a	n/a	3	10	231	RTPJ	407.31419891119	0.635455680399501	1607.46232876712	-0.370242214532872	0	1425.30976172175	0.218461538461538	1	6	1	0	0	0	0
468.391979226615	2.51875324407968	reward_rtpj	470.910732470695	91	1	15	10	750	250	250	250	0	0	0	0	2000	0	BLOCKED	0.75	-1	3	1	n/a	n/a	n/a	3	10	231	RTPJ	523.322458613664	0.586766541822722	1548.09365558912	0.155015197568389	0	1489.98385857033	0.227692307692308	1	7	1	0	0	0	0
471.8947543245	2.5187401972413	reward_rtpj	474.413494521741	92	1	15	10	750	250	250	250	0	0	0	0	2000	0	BLOCKED	0.75	-1	3	1	n/a	n/a	n/a	3	10	231	RTPJ	673.593832865357	0	1446.53308364544	-0.15875	0	1448.7048424289	0.257692307692308	0	8	1	0	0	0	0
475.414408153076	6.02152481579407	panas_none	481.43593296887	93	5	16	n/a	n/a	n/a	n/a	n/a	n/a	n/a	n/a	n/a	n/a	n/a	n/a	n/a	n/a	n/a	n/a	irritable	At this moment	2	3	10	231	NONE	n/a	0	895.696629213483	0.02875	0.0753266717909301	1178.35827098919	-0.128119800332779	3	1	0	1	0	1	0
482.419968222134	6.02166656793281	panas_none	488.441634790067	94	5	16	n/a	n/a	n/a	n/a	n/a	n/a	n/a	n/a	n/a	n/a	n/a	n/a	n/a	n/a	n/a	n/a	proud	At this moment	3	3	10	231	NONE	n/a	0	1037.82147315855	-0.03	0	1135.54342813221	-0.199230769230769	0	2	0	1	0	1	0
489.42576313429	6.02165598941593	panas_none	495.447419123705	95	5	16	n/a	n/a	n/a	n/a	n/a	n/a	n/a	n/a	n/a	n/a	n/a	n/a	n/a	n/a	n/a	n/a	hostile	At this moment	1	3	10	231	NONE	n/a	0	1006.76903870162	-0.00875	0	1085.37355880092	0.01	2	3	0	1	0	1	0
496.431383148279	11.6929221957065	panas_none	508.124305343986	96	5	16	n/a	n/a	n/a	n/a	n/a	n/a	n/a	n/a	n/a	n/a	n/a	n/a	n/a	n/a	n/a	n/a	n/a	n/a	n/a	3	10	231	NONE	n/a	0.421972534332085	1499.3909287257	0.00218340611353712	0.06456571867794	1226.99260476582	0.196546052631579	6	4	0	1	0	1	0
