onset	duration	trial_type	offset	trial	block	blockCntr	frequency	amplitude_1	amplitude_2	amplitude_3	amplitude_4	amplitude_5	amplitude_6	amplitude_7	amplitude_8	transition	sham	mode	rewardFraction	guess	outcome	correct	word	when	answer	runNr	scanNr	subjectNr	target	reactionTime	outcomeEyeClosed	outcomeParms_1	outcomeParms_2	outcomeParms_3	outcomeSigma	outcomePupilArea	guessEyeClosed	guessParms_1	guessParms_2	guessParms_3	guessSigma	guessPupilArea	nrBlinks	trialInBlock	isReward	isPanas	isPunish	beforePanasReward	beforePanasVLPFC
20.3815227141902	2.51623449894786	punish_vlpfc	22.897757213138	1	4	1	10	0	0	0	0	250	250	250	750	2000	0	BLOCKED	0.25	-1	8	-1	active	At this moment	4	2	7	231	VLPFC	1481.89980310202	0	2659.25236621001	-0.198896339329959	-9.34645954798518e-05	40.1777082922701	1825.05617977528	0.219062259800154	2089.29228929308	-0.430694906690329	0.000311875442614755	27.151106717995	1967.05905511811	1	1	0	0	1	0	0
23.8986059628986	2.51866650023311	punish_vlpfc	26.4172724631317	2	4	1	10	0	0	0	0	250	250	250	750	2000	0	BLOCKED	0.25	1	0	-1	irritable	At this moment	2	2	7	231	VLPFC	257.011794343591	0.651685393258427	n/a	n/a	n/a	n/a	1758.84946236559	0	1414.01458540696	0.446654320840448	-0.000139009469176995	19.9818463226637	1673.50730207533	1	2	0	0	1	0	0
27.4014611049034	2.51865697956831	punish_vlpfc	29.9201180844717	3	4	1	10	0	0	0	0	250	250	250	750	2000	0	BLOCKED	0.25	-1	0	1	inspired	At this moment	1	2	7	231	VLPFC	774.97905453667	0.476903870162297	n/a	n/a	n/a	n/a	1562.25059665871	0	909.554045315983	0.770945280719764	-0.000168856188998724	13.5632429559843	1427.21368178324	1	3	0	0	1	0	0
30.9208836165555	2.51897468772158	punish_vlpfc	33.4398583042771	4	4	1	10	0	0	0	0	250	250	250	750	2000	0	BLOCKED	0.25	1	2	-1	proud	At this moment	5	2	7	231	VLPFC	908.465494286269	0.583021223470662	n/a	n/a	n/a	n/a	1622.34730538922	0	913.970546512619	0.583215853729345	-7.18075493497091e-05	20.9341440482553	1351.42736356649	1	4	0	0	1	0	0
34.4404447067939	2.51876875923574	punish_vlpfc	36.9592134660296	5	4	1	10	0	0	0	0	250	250	250	750	2000	0	BLOCKED	0.25	1	1	-1	hostile	At this moment	4	2	7	231	VLPFC	808.284460578114	0.799001248439451	n/a	n/a	n/a	n/a	1703.77639751553	0.280553420445811	n/a	n/a	n/a	n/a	1523.68803418803	2	5	0	0	1	0	0
37.9600290697664	2.51868871512264	punish_vlpfc	40.478717784889	6	4	1	10	0	0	0	0	250	250	250	750	2000	0	BLOCKED	0.25	1	4	-1	irritable	At this moment	4	2	7	231	VLPFC	673.407650947571	0.51685393258427	n/a	n/a	n/a	n/a	1797.79586563307	0.281322059953882	n/a	n/a	n/a	n/a	1653.04385026738	2	6	0	0	1	0	0
41.4628193301968	2.51879203197733	punish_vlpfc	43.9816113621742	7	4	1	10	0	0	0	0	250	250	250	750	2000	0	BLOCKED	0.25	-1	10	-1	enthusiastic	At this moment	4	2	7	231	VLPFC	606.900860946625	0.606741573033708	n/a	n/a	n/a	n/a	1768.71746031746	0	1339.38989154244	0.499379559491624	-9.62418525094935e-05	16.7975494901172	1681.11145272867	1	7	0	0	1	0	0
44.9656487311423	2.51876911185682	punish_vlpfc	47.4844178429991	8	4	1	10	0	0	0	0	250	250	250	750	2000	0	BLOCKED	0.25	1	7	1	scared	At this moment	1	2	7	231	VLPFC	241.572094716132	0.441947565543071	n/a	n/a	n/a	n/a	1531.9418344519	0	1245.21747316233	0.351357022316525	-2.73513971063073e-05	18.7529894150253	1519.72943889316	1	8	0	0	1	0	0
48.4868114090003	6.02001526127383	panas_none	54.5068266702741	9	5	2	10	n/a	n/a	n/a	n/a	n/a	n/a	n/a	n/a	2000	0	BLOCKED	n/a	n/a	+	0	excited	At this moment	2	2	7	231	NONE	n/a	0	1934.66213494597	-1.17599973363319	0.00031262400468349	9.43927995066966	860.219725343321	0	875.868196416442	0.873109537037895	-0.000589752036090358	30.5880415127426	1133.19830899308	1	1	0	1	0	0	1
55.5075749241188	6.02160944393277	panas_none	61.5291843680516	10	5	2	10	n/a	n/a	n/a	n/a	n/a	n/a	n/a	n/a	2000	0	BLOCKED	n/a	n/a	+	0	afraid	At this moment	1	2	7	231	NONE	n/a	0.370786516853933	n/a	n/a	n/a	n/a	1288.68650793651	0.229823212913144	1247.02212586088	-0.0248410383613492	6.53886449403921e-05	29.7946603951338	1292.2744510978	4	2	0	1	0	0	1
62.5299996191747	6.02154738329723	panas_none	68.551547002472	11	5	2	10	n/a	n/a	n/a	n/a	n/a	n/a	n/a	n/a	2000	0	BLOCKED	n/a	n/a	+	0	alert	At this moment	4	2	7	231	NONE	n/a	0	2286.6376053463	-1.15021322503205	0.00025689243422392	15.5340019014492	1017.38202247191	0	1092.69826894865	0.295784034448584	-0.000162865674783123	11.6709751665797	1203.47425057648	1	3	0	1	0	0	1
69.5524426503293	9.14062165013328	panas_none	78.6930643004626	12	5	2	10	n/a	n/a	n/a	n/a	n/a	n/a	n/a	n/a	2000	0	BLOCKED	n/a	n/a	+	0	proud	At this moment	5	2	7	231	NONE	n/a	0.242197253433208	-2319.8223230784	3.07946776030077	-0.000658809063056058	20.2606018985294	1236.86161449753	0.266717909300538	n/a	n/a	n/a	n/a	1044.44549266247	4	4	0	1	0	0	1
79.6775685346909	2.51849759655818	reward_rtpj	82.1960661312491	13	1	3	10	750	250	250	250	0	0	0	0	2000	0	BLOCKED	0.75	1	8	1	enthusiastic	At this moment	3	2	7	231	RTPJ	623.202709794044	0	11633.9103066687	-9.38328275498479	0.00207808782801571	26.7183651695343	1194.33083645443	0	796.890319987908	0.280377139811791	0.000100582170211594	31.7596384291143	1122.66256725596	0	1	1	0	0	0	0
83.1801482826099	2.5187528914623	reward_rtpj	85.6989011740722	14	1	3	10	750	250	250	250	0	0	0	0	2000	0	BLOCKED	0.75	1	8	1	scared	At this moment	5	2	7	231	RTPJ	524.458591453731	0.433208489388265	n/a	n/a	n/a	n/a	1347.13215859031	0	1016.81668121855	0.272559258126775	1.84934039442606e-05	13.4667934896536	1264.35357417371	1	2	1	0	0	0	0
86.6995856041908	2.51877122755721	reward_rtpj	89.218356831748	15	1	3	10	750	250	250	250	0	0	0	0	2000	0	BLOCKED	0.75	1	0	-1	determined	At this moment	5	2	7	231	RTPJ	523.657797634602	0.682896379525593	n/a	n/a	n/a	n/a	1622.32677165354	0	1242.65054506354	0.138626810172301	6.98094652734848e-05	14.579457238265	1420.63950807071	1	3	1	0	0	0	0
90.2192464851104	2.5186746104285	reward_rtpj	92.7379210955389	16	1	3	10	750	250	250	250	0	0	0	0	2000	0	BLOCKED	0.75	-1	6	-1	attentive	At this moment	4	2	7	231	RTPJ	724.543501686305	0.504369538077403	n/a	n/a	n/a	n/a	1563.2644836272	0	1045.41280093651	0.388735470845289	-5.3874036727249e-05	25.4272013637158	1331.32667179093	1	4	1	0	0	0	0
93.7387543301396	2.5187423129417	reward_rtpj	96.2574966430813	17	1	3	10	750	250	250	250	0	0	0	0	2000	0	BLOCKED	0.75	-1	4	1	nervous	At this moment	4	2	7	231	RTPJ	923.543408598751	0	4962.72559678387	-3.04066945778082	0.000630375546293559	13.7050448082882	1384.60549313358	0.391237509607994	n/a	n/a	n/a	n/a	1450.96843434343	1	5	1	0	0	0	0
97.2415333068147	2.51876135427877	reward_rtpj	99.7602946610935	18	1	3	10	750	250	250	250	0	0	0	0	2000	0	BLOCKED	0.75	1	6	1	guilty	At this moment	3	2	7	231	RTPJ	891.02433905378	0	10905.9967801484	-8.44609463481514	0.00183642551914679	16.7033925039466	1344.95505617978	0	837.552590692007	0.703615345100909	-0.000169466289219752	20.0665172306578	1290.25134511914	0	6	1	0	0	0	0
100.744337319318	2.51902017535269	reward_rtpj	103.263357494671	19	1	3	10	750	250	250	250	0	0	0	0	2000	0	BLOCKED	0.75	-1	4	1	hostile	At this moment	5	2	7	231	RTPJ	807.071809798479	0.421972534332085	n/a	n/a	n/a	n/a	1328.20518358531	0	882.558221388875	0.613299607803111	-0.00014697749477171	20.8541776336189	1277.68716372022	1	7	1	0	0	0	0
104.264129726481	2.51855754149706	reward_rtpj	106.782687267978	20	1	3	10	750	250	250	250	0	0	0	0	2000	0	BLOCKED	0.75	1	7	1	upset	At this moment	1	2	7	231	RTPJ	773.282965481281	0	9414.05648171229	-7.32648476738779	0.00163301859381619	39.7036327762056	1317.87141073658	0	1085.12001116982	0.512875751767752	-0.000129604247088844	12.7842645167826	1409.01383551115	0	8	1	0	0	0	0
107.783536722973	6.02186650192365	panas_none	113.805403224897	21	5	4	10	n/a	n/a	n/a	n/a	n/a	n/a	n/a	n/a	2000	0	BLOCKED	n/a	n/a	+	0	alert	At this moment	4	2	7	231	NONE	n/a	0	-834.236543541568	1.62168999076118	-0.000376727872833286	11.954275504675	889.634207240949	0.0545734050730208	668.075110461113	1.07865145667189	-0.000647286193388311	27.3359824872409	1039.41788617886	2	1	0	1	0	1	0
114.805886663169	6.02153116290272	panas_none	120.827417826071	22	5	4	10	n/a	n/a	n/a	n/a	n/a	n/a	n/a	n/a	2000	0	BLOCKED	n/a	n/a	+	0	excited	At this moment	3	2	7	231	NONE	n/a	0.580524344569288	n/a	n/a	n/a	n/a	820.985119047619	0	979.770422907402	-0.0423364504429951	-3.76091998181561e-05	13.8849845266388	911.787855495773	3	2	0	1	0	1	0
121.828276801731	6.02155196732284	panas_none	127.849828769054	23	5	4	10	n/a	n/a	n/a	n/a	n/a	n/a	n/a	n/a	2000	0	BLOCKED	n/a	n/a	+	0	active	At this moment	4	2	7	231	NONE	n/a	0	1223.50030475942	-0.466775544560556	0.000138440106161384	9.34117143467395	861.087390761548	0	1006.60133541663	-0.279666574566065	0.000137267740243613	9.7325156973498	887.368178324366	1	3	0	1	0	1	0
128.85064190447	6.48850785066932	panas_none	135.339149755139	24	5	4	10	n/a	n/a	n/a	n/a	n/a	n/a	n/a	n/a	2000	0	BLOCKED	n/a	n/a	+	0	upset	At this moment	3	2	7	231	NONE	n/a	0	2680.34554414427	-1.02267858836537	0.000160725214260607	13.8834981665408	1248.35580524345	0.490392006149116	n/a	n/a	n/a	n/a	1115.85972850679	4	4	0	1	0	1	0
136.323450529207	2.51870810906959	reward_rtpj	138.842158638276	25	1	5	10	750	250	250	250	0	0	0	0	2000	0	BLOCKED	0.75	1	6	1	scared	At this moment	4	2	7	231	RTPJ	774.495616260916	0.456928838951311	n/a	n/a	n/a	n/a	1247.8183908046	0	816.842061372326	0.55597548161398	-0.000139210247824269	15.7645959778483	1169.36433512683	1	1	1	0	0	0	0
139.826245021045	2.51870211457089	reward_rtpj	142.344947135616	26	1	5	10	750	250	250	250	0	0	0	0	2000	0	BLOCKED	0.75	1	2	-1	ashamed	At this moment	3	2	7	231	RTPJ	556.854950178415	0.49812734082397	n/a	n/a	n/a	n/a	1430.10199004975	0	937.73962760924	0.522040854593157	-0.000125987247616345	17.5585689805497	1272.81245196003	1	2	1	0	0	0	0
143.329073011521	2.51871692449973	reward_rtpj	145.847789936021	27	1	5	10	750	250	250	250	0	0	0	0	2000	0	BLOCKED	0.75	1	9	1	attentive	At this moment	3	2	7	231	RTPJ	673.421050403267	0.589263420724095	n/a	n/a	n/a	n/a	1386.88449848024	0	1232.30082835625	0.121171295407837	4.3452399393558e-05	20.6158150464523	1372.87932359723	1	3	1	0	0	0	0
146.833631294925	2.51707972253112	reward_rtpj	149.350711017456	28	1	5	10	750	250	250	250	0	0	0	0	2000	0	BLOCKED	0.75	-1	4	1	hostile	At this moment	4	2	7	231	RTPJ	538.618290394545	0.68789013732834	n/a	n/a	n/a	n/a	1415.188	0	1036.28895596401	0.337088635429738	-3.5038450006875e-05	20.4925578737449	1292.24596464258	1	4	1	0	0	0	0
150.334828430541	2.5187521862276	reward_rtpj	152.853580616768	29	1	5	10	750	250	250	250	0	0	0	0	2000	0	BLOCKED	0.75	1	10	1	inspired	At this moment	3	2	7	231	RTPJ	541.41348747164	0.485642946317104	n/a	n/a	n/a	n/a	1311.56067961165	0	949.606954081556	0.156227889895108	9.47642543301781e-05	17.6016345364088	1165.8854727133	1	5	1	0	0	0	0
153.85432076041	2.51870352504775	reward_rtpj	156.373024285458	30	1	5	10	750	250	250	250	0	0	0	0	2000	0	BLOCKED	0.75	-1	10	-1	nervous	At this moment	4	2	7	231	RTPJ	372.96151958406	0.559300873907616	n/a	n/a	n/a	n/a	1503.37677053824	0	964.098899616784	0.483023998473234	-9.90885213903333e-05	17.9034720654676	1290.20368946964	1	6	1	0	0	0	0
157.37387902971	2.51873455536364	reward_rtpj	159.892613585073	31	1	5	10	750	250	250	250	0	0	0	0	2000	0	BLOCKED	0.75	-1	4	1	enthusiastic	At this moment	5	2	7	231	RTPJ	623.719646703452	0.48689138576779	n/a	n/a	n/a	n/a	1415.45498783455	0	1200.32763047642	0.158982655710426	3.10569464183219e-05	15.4435993841652	1361.95311299001	1	7	1	0	0	0	0
160.876728882454	2.51870810906962	reward_rtpj	163.395436991524	32	1	5	10	750	250	250	250	0	0	0	0	2000	0	BLOCKED	0.75	1	7	1	attentive	At this moment	2	2	7	231	RTPJ	506.368267834187	0	10315.4986421517	-8.14263534990192	0.00180460787039369	27.2699917401733	1263.58302122347	0	995.811182928266	0.367538425106701	-3.27623072196826e-05	26.3099728076389	1280.39892390469	0	8	1	0	0	0	0
164.396320650391	6.02152587364614	panas_none	170.417846524037	33	5	6	10	n/a	n/a	n/a	n/a	n/a	n/a	n/a	n/a	2000	0	BLOCKED	n/a	n/a	+	0	upset	At this moment	1	2	7	231	NONE	n/a	0	-78.3885275957475	0.694372421080213	-0.000129066601377151	12.5344156802873	803.515605493134	0	485.139843175362	1.07748783889411	-0.000605461622856202	25.3982869307166	906.564181398924	2	1	0	1	0	1	0
171.418609940421	6.02165387371184	panas_none	177.440263814133	34	5	6	10	n/a	n/a	n/a	n/a	n/a	n/a	n/a	n/a	2000	0	BLOCKED	n/a	n/a	+	0	ashamed	At this moment	1	2	7	231	NONE	n/a	0	1282.49625408516	-0.590885843233552	0.000191301767279743	11.7936942526947	894.754057428215	0.229823212913144	838.462230255899	-0.174123803899219	0.00013668865907103	14.5094270983555	814.032934131737	3	2	0	1	0	1	0
178.440964112025	6.02159745495021	panas_none	184.462561566975	35	5	6	10	n/a	n/a	n/a	n/a	n/a	n/a	n/a	n/a	2000	0	BLOCKED	n/a	n/a	+	0	jittery	At this moment	2	2	7	231	NONE	n/a	0.369538077403246	n/a	n/a	n/a	n/a	859.425742574257	0	934.342716136815	-0.0452660574448799	-1.93805472631597e-07	11.7473079883951	895.655649500384	3	3	0	1	0	1	0
185.463359187227	8.50703471446784	panas_none	193.970393901695	36	5	6	10	n/a	n/a	n/a	n/a	n/a	n/a	n/a	n/a	2000	0	BLOCKED	n/a	n/a	+	0	excited	At this moment	4	2	7	231	NONE	n/a	0	1633.89832189918	-0.170178343876181	7.91890479967351e-06	23.7403106021706	1311.93008739076	0.315910837817064	n/a	n/a	n/a	n/a	1165.86853932584	2	4	0	1	0	1	0
194.954520482831	2.51870140933991	punish_rtpj	197.473221892171	37	3	7	10	750	250	250	250	0	0	0	0	2000	0	BLOCKED	0.25	-1	9	-1	hostile	At this moment	3	2	7	231	RTPJ	539.7780485861	0	1152.49882815275	0.120125522300849	-2.13375110849641e-05	19.7162282183806	1309.66541822722	0	554.254765533895	0.482042868925713	-3.56569699916099e-05	18.5986491401774	934.142966948501	0	1	0	0	1	0	0
198.473948988974	2.51873314489424	punish_rtpj	200.992682133868	38	3	7	10	750	250	250	250	0	0	0	0	2000	0	BLOCKED	0.25	-1	4	1	determined	At this moment	2	2	7	231	RTPJ	306.634211774915	0.580524344569288	n/a	n/a	n/a	n/a	1410.01785714286	0	862.848605720473	0.483726596129815	-4.75493817871568e-05	15.2818444680462	1233.69254419677	1	2	0	0	1	0	0
201.976910268776	2.51864534319563	punish_rtpj	204.495555611972	39	3	7	10	750	250	250	250	0	0	0	0	2000	0	BLOCKED	0.25	1	4	-1	guilty	At this moment	3	2	7	231	RTPJ	357.248541574925	0.590511860174782	n/a	n/a	n/a	n/a	1365.0243902439	0	1029.71427576647	0.380185642693453	-0.000103200383916397	17.5011415512211	1263.51575710992	1	3	0	0	1	0	0
205.496731590558	2.51831881960479	punish_rtpj	208.015050410163	40	3	7	10	750	250	250	250	0	0	0	0	2000	0	BLOCKED	0.25	1	9	1	nervous	At this moment	1	2	7	231	RTPJ	307.093319453299	0.511860174781523	n/a	n/a	n/a	n/a	1361.64450127877	0	1087.07274460434	0.230159703634309	2.27049606940536e-05	14.6428512021681	1302.13451191391	1	4	0	0	1	0	0
209.015876239803	2.51868977297099	punish_rtpj	211.534566012774	41	3	7	10	750	250	250	250	0	0	0	0	2000	0	BLOCKED	0.25	-1	8	-1	jittery	At this moment	1	2	7	231	RTPJ	323.026330634952	0.421972534332085	n/a	n/a	n/a	n/a	1388.04319654428	0	1030.31770702313	0.258870148641953	-2.68679792361402e-05	13.2784476478014	1227.4950038432	1	5	0	0	1	0	0
212.518586103495	2.51877404849603	punish_rtpj	215.037360151991	42	3	7	10	750	250	250	250	0	0	0	0	2000	0	BLOCKED	0.25	-1	10	-1	irritable	At this moment	3	2	7	231	RTPJ	306.644437674433	0.614232209737828	n/a	n/a	n/a	n/a	1539.76051779935	0	1164.36766896419	0.287317755508963	-2.57704383523127e-05	16.7119365660386	1385.40122982321	1	6	0	0	1	0	0
216.038181750223	2.51878215869516	punish_rtpj	218.556963908918	43	3	7	10	750	250	250	250	0	0	0	0	2000	0	BLOCKED	0.25	1	2	-1	active	At this moment	5	2	7	231	RTPJ	189.647791769356	0.666666666666667	n/a	n/a	n/a	n/a	1590.20599250936	0	914.566161282455	0.518863084321711	-7.44519796510698e-05	16.8190827537605	1292.94850115296	1	7	0	0	1	0	0
219.557792559493	2.51877052232624	punish_rtpj	222.07656308182	44	3	7	10	750	250	250	250	0	0	0	0	2000	0	BLOCKED	0.25	-1	6	-1	upset	At this moment	4	2	7	231	RTPJ	389.645252924412	0.461922596754057	n/a	n/a	n/a	n/a	1594.95591647332	0	1182.96296859555	0.44979730969141	-0.000110127501134269	14.0169829713782	1470.05073020753	1	8	0	0	1	0	0
223.060534511358	6.0217638902962	panas_none	229.082298401654	45	5	8	10	n/a	n/a	n/a	n/a	n/a	n/a	n/a	n/a	2000	0	BLOCKED	n/a	n/a	+	0	enthusiastic	At this moment	2	2	7	231	NONE	n/a	0.262172284644195	n/a	n/a	n/a	n/a	801.575296108291	0	1423.23832847786	-0.0356413875704073	-0.000210498834928564	76.1352239595526	1214.43889315911	2	1	0	1	0	0	0
230.083039250534	6.0215572565794	panas_none	236.104596507113	46	5	8	10	n/a	n/a	n/a	n/a	n/a	n/a	n/a	n/a	2000	0	BLOCKED	n/a	n/a	+	0	nervous	At this moment	1	2	7	231	NONE	n/a	0.436953807740325	n/a	n/a	n/a	n/a	936.086474501109	0	998.038783907708	0.0125455695683241	-0.000106539575555152	17.6335571843363	917.420445810915	3	2	0	1	0	0	0
237.105409289911	6.02154597282782	panas_none	243.126955262739	47	5	8	10	n/a	n/a	n/a	n/a	n/a	n/a	n/a	n/a	2000	0	BLOCKED	n/a	n/a	+	0	strong	At this moment	3	2	7	231	NONE	n/a	0.544319600499376	n/a	n/a	n/a	n/a	878.065753424657	0	943.172328025249	0.0804322158556386	-8.87064213831861e-05	9.85026223757044	934.788624135281	2	3	0	1	0	0	0
244.111167529874	7.25581783227622	panas_none	251.36698536215	48	5	8	10	n/a	n/a	n/a	n/a	n/a	n/a	n/a	n/a	2000	0	BLOCKED	n/a	n/a	+	0	active	At this moment	5	2	7	231	NONE	n/a	0.300873907615481	n/a	n/a	n/a	n/a	1236.43571428571	0.00461183704842429	967.964305186996	0.316948152206925	-0.000122025844319109	23.4479801454742	1132.20463320463	5	4	0	1	0	0	0
252.367821417689	2.5187423129417	reward_vlpfc	254.886563730631	49	2	9	10	0	0	0	0	250	250	250	750	2000	0	BLOCKED	0.75	1	8	1	alert	At this moment	1	2	7	231	VLPFC	657.100865464658	0	4352.66267030201	-2.924111112116	0.000628669164512279	12.783645441007	1016.80774032459	0	554.074909549556	0.461541014662011	-3.40480600576551e-05	25.2711881727846	917.020753266718	0	1	1	0	0	0	0
255.887334904596	2.51875677024944	reward_vlpfc	258.406091674846	50	2	9	10	0	0	0	0	250	250	250	750	2000	0	BLOCKED	0.75	1	10	1	enthusiastic	At this moment	2	2	7	231	VLPFC	557.457925707102	0.337078651685393	n/a	n/a	n/a	n/a	1342.28248587571	0	972.57177712791	0.405596371242906	-6.46748492450056e-05	11.3135175997376	1261.46733282091	1	2	1	0	0	0	0
259.40688858987	2.51874901266768	reward_vlpfc	261.925637602538	51	2	9	10	0	0	0	0	250	250	250	750	2000	0	BLOCKED	0.75	1	8	1	hostile	At this moment	1	2	7	231	VLPFC	524.764663234353	0.399500624219725	n/a	n/a	n/a	n/a	1492.48024948025	0	1103.33979256713	0.377067150995625	-2.95994868945846e-05	13.8636779724098	1398.08378170638	1	3	1	0	0	0	0
262.926396787513	2.51881706780568	reward_vlpfc	265.445213855319	52	2	9	10	0	0	0	0	250	250	250	750	2000	0	BLOCKED	0.75	-1	9	-1	guilty	At this moment	3	2	7	231	VLPFC	506.684212904423	0.415730337078652	n/a	n/a	n/a	n/a	1651.14316239316	0	1184.09604183074	0.453595991955613	-9.56978626212248e-05	12.7762390229091	1487.13143735588	1	4	1	0	0	0	0
266.445950472787	2.51869823578369	reward_vlpfc	268.964648708571	53	2	9	10	0	0	0	0	250	250	250	750	2000	0	BLOCKED	0.75	-1	7	-1	distressed	At this moment	1	2	7	231	VLPFC	439.709147173911	0.65792759051186	n/a	n/a	n/a	n/a	1597.83941605839	0	1086.49848002996	0.469365251904175	-0.000102304608166313	14.856777766149	1397.16602613374	1	5	1	0	0	0	0
269.965328202046	2.51882165183127	reward_vlpfc	272.484149853878	54	2	9	10	0	0	0	0	250	250	250	750	2000	0	BLOCKED	0.75	-1	3	1	interested	At this moment	5	2	7	231	VLPFC	957.341068346053	0	10353.9048408201	-8.07848210608979	0.00179183541933792	22.5988314987103	1378.01747815231	0	1134.12020357738	0.538133163806513	-0.000133535714337982	19.4177874411332	1476.14681014604	0	6	1	0	0	0	0
273.48524578834	2.51845387201757	reward_vlpfc	276.003699660357	55	2	9	10	0	0	0	0	250	250	250	750	2000	0	BLOCKED	0.75	1	6	1	nervous	At this moment	1	2	7	231	VLPFC	790.436385024339	0	8431.19368311326	-6.20256352209275	0.00133636397013364	19.471851495587	1356.95006242197	0	964.236692030106	0.355434973793776	1.1432182506621e-05	22.3621344759898	1276.54342813221	0	7	1	0	0	0	0
276.987858682282	2.51872997133808	reward_vlpfc	279.50658865362	56	2	9	10	0	0	0	0	250	250	250	750	2000	0	BLOCKED	0.75	1	9	1	irritable	At this moment	3	2	7	231	VLPFC	556.339776355773	0	6744.20013022324	-4.65752166168948	0.00098564568771702	17.0006604410044	1356.12359550562	0	984.713204517741	0.448420880366033	-6.65331935813017e-05	16.8890503843416	1308.8285933897	0	8	1	0	0	0	0
280.507303761438	6.02164223734292	panas_none	286.52894599878	57	5	10	10	n/a	n/a	n/a	n/a	n/a	n/a	n/a	n/a	2000	0	BLOCKED	n/a	n/a	+	0	active	At this moment	4	2	7	231	NONE	n/a	0	721.766998099298	-0.0095373525781348	3.8367395654138e-05	11.2148351142225	873.008739076155	0	746.388030231738	0.418730765135085	-0.000242422398728558	33.3832403729451	907.06379707917	2	1	0	1	0	1	1
287.529762307752	6.02155373040961	panas_none	293.551316038162	58	5	10	10	n/a	n/a	n/a	n/a	n/a	n/a	n/a	n/a	2000	0	BLOCKED	n/a	n/a	+	0	guilty	At this moment	1	2	7	231	NONE	n/a	0	1104.34724267288	-0.300819439379981	0.000119050691813393	13.7176976692757	1003.85393258427	0	1045.55180962489	0.0301131922364777	-3.75548206294903e-05	14.8388359555434	1038.52574942352	1	2	0	1	0	1	1
294.552266341694	6.02147544937577	panas_none	300.573741791069	59	5	10	10	n/a	n/a	n/a	n/a	n/a	n/a	n/a	n/a	2000	0	BLOCKED	n/a	n/a	+	0	upset	At this moment	1	2	7	231	NONE	n/a	0	2019.28941554909	-1.21587013121417	0.000295094096999929	11.4340549608935	783.178526841448	0	904.128599077766	-0.1343271404595	3.71764438698025e-05	11.778482086492	821.617986164489	3	3	0	1	0	1	1
301.57453870609	9.74130093203854	panas_none	311.315839638129	60	5	10	10	n/a	n/a	n/a	n/a	n/a	n/a	n/a	n/a	2000	0	BLOCKED	n/a	n/a	+	0	proud	At this moment	1	2	7	231	NONE	n/a	0.524344569288389	n/a	n/a	n/a	n/a	1271.00524934383	0.285933897002306	n/a	n/a	n/a	n/a	1208.7491926803	5	4	0	1	0	1	1
312.316613633029	2.51868377847597	punish_rtpj	314.835297411505	61	3	11	10	750	250	250	250	0	0	0	0	2000	0	BLOCKED	0.25	1	3	-1	strong	At this moment	5	2	7	231	RTPJ	1023.66449736431	0	2161.674315631	-0.879447225630462	0.000209774760041621	21.8872800192762	1250.95380774032	0	642.407560107054	0.36821537790547	-1.3401433426365e-06	15.3097817925183	954.575710991545	0	1	0	0	1	0	0
315.83610314196	2.51866191620752	punish_rtpj	318.354765058167	62	3	11	10	750	250	250	250	0	0	0	0	2000	0	BLOCKED	0.25	1	10	1	alert	At this moment	2	2	7	231	RTPJ	357.620552793145	0.548064918851436	n/a	n/a	n/a	n/a	1290.38397790055	0	859.191902720062	0.33211492617721	1.67275859872505e-06	13.6931903588089	1143.29976940815	1	2	0	0	1	0	0
319.356148728322	2.51830753585324	punish_rtpj	321.874456264175	63	3	11	10	750	250	250	250	0	0	0	0	2000	0	BLOCKED	0.25	1	9	1	upset	At this moment	5	2	7	231	RTPJ	656.536677837372	0.550561797752809	n/a	n/a	n/a	n/a	1337	0	974.99625527083	0.422888451552423	-8.84705877605969e-05	12.8237249847684	1258.01152959262	1	3	0	0	1	0	0
322.858519021586	2.518740902476	punish_rtpj	325.377259924062	64	3	11	10	750	250	250	250	0	0	0	0	2000	0	BLOCKED	0.25	1	4	-1	inspired	At this moment	5	2	7	231	RTPJ	440.257467024028	0.523096129837703	n/a	n/a	n/a	n/a	1513.56020942408	0	974.006292941627	0.213029965171105	6.80929019315277e-05	13.2765549895367	1213.62182936203	1	4	0	0	1	0	0
326.377952464372	2.51888124414535	punish_rtpj	328.896833708517	65	3	11	10	750	250	250	250	0	0	0	0	2000	0	BLOCKED	0.25	1	4	-1	excited	At this moment	5	2	7	231	RTPJ	823.646231789142	1	n/a	n/a	n/a	n/a	n/a	1	n/a	n/a	n/a	n/a	n/a	2	5	0	0	1	0	0
329.881005424663	2.5185984450988	punish_rtpj	332.399603869762	66	3	11	10	750	250	250	250	0	0	0	0	2000	0	BLOCKED	0.25	1	0	-1	nervous	At this moment	1	2	7	231	RTPJ	324.742871489376	1	n/a	n/a	n/a	n/a	n/a	1	n/a	n/a	n/a	n/a	n/a	1	6	0	0	1	0	0
333.383708941244	2.51873067657652	punish_rtpj	335.90243961782	67	3	11	10	750	250	250	250	0	0	0	0	2000	0	BLOCKED	0.25	1	1	-1	enthusiastic	At this moment	4	2	7	231	RTPJ	508.198704060167	1	n/a	n/a	n/a	n/a	n/a	1	n/a	n/a	n/a	n/a	n/a	1	7	0	0	1	0	0
336.886557383522	2.51876593830059	punish_rtpj	339.405323321823	68	3	11	10	750	250	250	250	0	0	0	0	2000	0	BLOCKED	0.25	-1	8	-1	determined	At this moment	5	2	7	231	RTPJ	439.817048057914	0.622971285892634	n/a	n/a	n/a	n/a	1691.85099337748	0	1061.75830456738	0.474186182683579	-4.36609976282958e-05	19.9761355198806	1427.10299769408	1	8	0	0	1	0	0
340.406125173487	6.02152411055937	panas_none	346.427649284046	69	5	12	10	n/a	n/a	n/a	n/a	n/a	n/a	n/a	n/a	2000	0	BLOCKED	n/a	n/a	+	0	inspired	At this moment	1	2	7	231	NONE	n/a	0	2361.1936089541	-1.47542324228207	0.00036670902058569	12.3989531636244	899.675405742821	0	1292.07728189732	0.210533529345617	-0.000271011457865597	17.5872527914723	1262.05611068409	2	1	0	1	0	0	0
347.428523774866	6.02174661204964	panas_none	353.450270386916	70	5	12	10	n/a	n/a	n/a	n/a	n/a	n/a	n/a	n/a	2000	0	BLOCKED	n/a	n/a	+	0	ashamed	At this moment	1	2	7	231	NONE	n/a	0	1615.17749215737	-0.480536882416387	0.000118729587015053	14.8163185875802	1135.87765293383	0	1346.97327435657	-0.119169967817366	1.18535372888233e-05	16.0093895011853	1255.97002305919	1	2	0	1	0	0	0
354.450882883113	6.02162178554016	panas_none	360.472504668653	71	5	12	10	n/a	n/a	n/a	n/a	n/a	n/a	n/a	n/a	2000	0	BLOCKED	n/a	n/a	+	0	interested	At this moment	3	2	7	231	NONE	n/a	0	119.696405924402	0.509863597328023	-8.07549760866745e-05	13.3695314347446	829.950062421973	0	914.077299536274	-0.381888459789788	0.000173534069507823	10.9752230548522	739.341275941583	1	3	0	1	0	0	0
361.473187688299	5.83826080701124	panas_none	367.31144849531	72	5	12	10	n/a	n/a	n/a	n/a	n/a	n/a	n/a	n/a	2000	0	BLOCKED	n/a	n/a	+	0	distressed	At this moment	3	2	7	231	NONE	n/a	0.0861423220973783	1593.89516284938	-0.328590660605278	5.78489603444961e-05	11.567017652	1164.39344262295	0.37663335895465	n/a	n/a	n/a	n/a	905.468557336621	4	4	0	1	0	0	0
368.312300418627	2.51857587759565	punish_vlpfc	370.830876296222	73	4	13	10	0	0	0	0	250	250	250	750	2000	0	BLOCKED	0.25	1	3	-1	afraid	At this moment	2	2	7	231	VLPFC	1472.81779278442	0	1298.3650602433	-0.381204252229159	0.000128956120430189	18.6879410446336	1073.37827715356	0.230591852421214	600.655878087144	0.457356540538803	-0.000146738626418311	13.0454840737392	838.634365634366	1	1	0	0	1	0	0
371.831735977117	2.51875289145858	punish_vlpfc	374.350488868576	74	4	13	10	0	0	0	0	250	250	250	750	2000	0	BLOCKED	0.25	1	4	-1	upset	At this moment	5	2	7	231	VLPFC	374.32438531518	0	1876.97166530773	-0.347592502376242	6.15521459088119e-05	14.4832781407547	1421.89263420724	0	970.495356699454	0.435778872488039	-8.48693272203283e-05	12.858399309861	1267.55111452729	0	2	0	0	1	0	0
375.351308351103	2.51865768479928	punish_vlpfc	377.869966035903	75	4	13	10	0	0	0	0	250	250	250	750	2000	0	BLOCKED	0.25	-1	3	1	alert	At this moment	1	2	7	231	VLPFC	740.560788396746	0	9492.02433767322	-7.27581084595421	0.00159750797436576	14.6360843392635	1329.29213483146	0	730.320283043094	0.777801712563706	-0.000178894390186775	15.6808799227947	1247.31129900077	0	3	0	0	1	0	0
378.870791160308	2.51867214210705	punish_vlpfc	381.389463302415	76	4	13	10	0	0	0	0	250	250	250	750	2000	0	BLOCKED	0.25	-1	6	-1	irritable	At this moment	1	2	7	231	VLPFC	373.090577501804	0.49438202247191	n/a	n/a	n/a	n/a	1516.5012345679	0	1161.89580488678	0.455458645670547	-0.000144254453004342	15.2439274148374	1424.51729438893	1	4	0	0	1	0	0
382.373683679741	2.51863229635734	punish_vlpfc	384.892315976098	77	4	13	10	0	0	0	0	250	250	250	750	2000	0	BLOCKED	0.25	1	1	-1	jittery	At this moment	1	2	7	231	VLPFC	274.027340535074	1	n/a	n/a	n/a	n/a	n/a	1	n/a	n/a	n/a	n/a	n/a	1	5	0	0	1	0	0
385.893099844284	2.51872997133808	punish_vlpfc	388.411829815622	78	4	13	10	0	0	0	0	250	250	250	750	2000	0	BLOCKED	0.25	1	4	-1	strong	At this moment	1	2	7	231	VLPFC	340.530604355037	0.600499375780275	n/a	n/a	n/a	n/a	1552.13125	0	1044.39270592038	0.432531424061022	-9.05198552532545e-05	13.8870834758354	1333.78631821676	1	6	0	0	1	0	0
389.412696548864	2.51865874265138	punish_vlpfc	391.931355291516	79	4	13	10	0	0	0	0	250	250	250	750	2000	0	BLOCKED	0.25	-1	10	-1	determined	At this moment	3	2	7	231	VLPFC	289.820715274662	0.612983770287141	n/a	n/a	n/a	n/a	1524.7	0	1185.88775507485	0.0949199268944239	5.78648296826473e-05	15.7403873868811	1316.6287471176	1	7	0	0	1	0	0
392.932231545422	2.51878462701666	punish_vlpfc	395.451016172439	80	4	13	10	0	0	0	0	250	250	250	750	2000	0	BLOCKED	0.25	1	7	1	alert	At this moment	5	2	7	231	VLPFC	824.524248782545	0	6167.18771530025	-4.27696354779036	0.000935251638974419	24.0646915133433	1357.75905118602	0.250576479631053	n/a	n/a	n/a	n/a	1308.32717948718	1	8	0	0	1	0	0
396.451904415332	6.02166586269811	panas_none	402.47357027803	81	5	14	10	n/a	n/a	n/a	n/a	n/a	n/a	n/a	n/a	2000	0	BLOCKED	n/a	n/a	+	0	active	At this moment	3	2	7	231	NONE	n/a	0	992.462417384339	-0.17769385208561	4.52632182279681e-05	10.079448414023	820.967540574282	0	851.412510055861	0.451245533614899	-0.000294686573231647	45.9745970062091	986.264411990776	1	1	0	1	0	0	1
403.474089683264	6.02150189566987	panas_none	409.495591578934	82	5	14	10	n/a	n/a	n/a	n/a	n/a	n/a	n/a	n/a	2000	0	BLOCKED	n/a	n/a	+	0	jittery	At this moment	1	2	7	231	NONE	n/a	0	1473.98385548654	-0.69339741124845	0.000196583463317573	11.3096847713938	895.267166042447	0	843.222303326724	0.013406522310969	1.09374120602333e-05	12.6537968151576	864.108378170638	1	2	0	1	0	0	1
410.479835934237	6.02157524006071	panas_none	416.501411174297	83	5	14	10	n/a	n/a	n/a	n/a	n/a	n/a	n/a	n/a	2000	0	BLOCKED	n/a	n/a	+	0	interested	At this moment	3	2	7	231	NONE	n/a	0	-1458.45665068292	2.4237926727815	-0.000576136602957851	14.6801135157432	1061.9138576779	0	985.784459147023	-0.119476324673583	8.22541016021603e-05	12.4447320815997	955.66948501153	1	3	0	1	0	0	1
417.502185521819	14.5450747125446	panas_none	432.047260234363	84	5	14	10	n/a	n/a	n/a	n/a	n/a	n/a	n/a	n/a	2000	0	BLOCKED	n/a	n/a	+	0	upset	At this moment	5	2	7	231	NONE	n/a	0	2980.4640299056	-1.83781830211307	0.000424872456799081	11.5674555239913	1017.27215980025	0.491160645657187	n/a	n/a	n/a	n/a	1198.54531722054	6	4	0	1	0	0	1
433.031489427123	2.51872750302033	reward_vlpfc	435.550216930144	85	2	15	10	0	0	0	0	250	250	250	750	2000	0	BLOCKED	0.75	1	7	1	scared	At this moment	1	2	7	231	VLPFC	557.700526386499	0	7670.28118808664	-5.41761309933028	0.00114800232240018	17.4486582479459	1395.77902621723	0	685.04822783937	0.656930030939171	-8.58969877723749e-05	18.0250459807026	1169.95080707148	0	1	1	0	0	0	0
436.551020192277	2.51871022477002	reward_vlpfc	439.069730417047	86	2	15	10	0	0	0	0	250	250	250	750	2000	0	BLOCKED	0.75	-1	9	-1	alert	At this moment	3	2	7	231	VLPFC	590.373689670116	0.503121098626717	n/a	n/a	n/a	n/a	1555.47487437186	0	1007.50722111642	0.26810907065993	4.48023697556485e-05	15.2616888212434	1278.1329746349	1	2	1	0	0	0	0
440.070533326562	2.5187648804486	reward_vlpfc	442.589298207011	87	2	15	10	0	0	0	0	250	250	250	750	2000	0	BLOCKED	0.75	1	4	-1	jittery	At this moment	4	2	7	231	VLPFC	324.032347697765	0.47940074906367	n/a	n/a	n/a	n/a	1496.74100719424	0.256725595695619	n/a	n/a	n/a	n/a	1323.48086866598	2	3	1	0	0	0	0
443.573337691683	2.51884280886503	reward_vlpfc	446.092180500548	88	2	15	10	0	0	0	0	250	250	250	750	2000	0	BLOCKED	0.75	-1	3	1	inspired	At this moment	2	2	7	231	VLPFC	340.798946097493	0.541822721598002	n/a	n/a	n/a	n/a	1372.5068119891	0	846.706972211113	0.920280811623397	-0.000345651248315645	15.7577755627582	1334.11606456572	1	4	1	0	0	0	0
447.092949911423	2.51879978955537	reward_vlpfc	449.611749700978	89	2	15	10	0	0	0	0	250	250	250	750	2000	0	BLOCKED	0.75	1	7	1	ashamed	At this moment	5	2	7	231	VLPFC	640.041594732553	0	6694.37838791235	-4.66357685663189	0.00100260720247146	18.4323411913389	1368.79400749064	0	1019.91547237735	0.489041740349313	-0.000118693683534603	18.2688277831529	1333.03535741737	0	5	1	0	0	0	0
450.612482087042	2.51872538731624	reward_vlpfc	453.131207474358	90	2	15	10	0	0	0	0	250	250	250	750	2000	0	BLOCKED	0.75	1	8	1	irritable	At this moment	4	2	7	231	VLPFC	658.26802861318	0.478152309612984	n/a	n/a	n/a	n/a	1316.54306220096	0	967.717233615841	0.334124174233883	-4.49099489086448e-05	25.6139713489199	1213.46887009992	1	6	1	0	0	0	0
454.13191482459	2.51886819731072	reward_vlpfc	456.650783021901	91	2	15	10	0	0	0	0	250	250	250	750	2000	0	BLOCKED	0.75	-1	3	1	guilty	At this moment	4	2	7	231	VLPFC	589.881083354354	0	9063.09448539306	-6.82767041262177	0.0014959263507655	22.4138998749277	1388.39325842697	0	1224.45344304641	0.244510595398073	-1.6305122674878e-05	14.3023080422127	1417.97694081476	0	7	1	0	0	0	0
457.634833790325	2.51873138180747	reward_vlpfc	460.153565172132	92	2	15	10	0	0	0	0	250	250	250	750	2000	0	BLOCKED	0.75	-1	3	1	excited	At this moment	3	2	7	231	VLPFC	489.743774190545	0	7711.41213590588	-5.76576950512611	0.00127574673411291	16.1974294753579	1287.11360799001	0.230591852421214	976.867934700803	0.426746949721406	-9.13671874487457e-05	22.5568987553268	1289.85114885115	1	8	1	0	0	0	0
461.154443541743	6.02159216568992	panas_none	467.176035707433	93	5	16	10	n/a	n/a	n/a	n/a	n/a	n/a	n/a	n/a	2000	0	BLOCKED	n/a	n/a	+	0	attentive	At this moment	5	2	7	231	NONE	n/a	0	2374.7703955984	-1.47686388212486	0.000335398831322094	12.1588114623955	770.214731585518	0	919.349266826672	0.135283408165235	-8.41062107292301e-05	52.1212718869687	964.813220599539	1	1	0	1	0	1	1
468.176772677518	6.02162954312189	panas_none	474.19840222064	94	5	16	10	n/a	n/a	n/a	n/a	n/a	n/a	n/a	n/a	2000	0	BLOCKED	n/a	n/a	+	0	nervous	At this moment	1	2	7	231	NONE	n/a	0.515605493133583	n/a	n/a	n/a	n/a	898.664948453608	0	1066.9932390385	-0.131579108954185	1.52267785525551e-05	10.7257122586224	967.950807071483	1	2	0	1	0	1	1
475.19911168658	6.02161579104882	panas_none	481.220727477629	95	5	16	10	n/a	n/a	n/a	n/a	n/a	n/a	n/a	n/a	2000	0	BLOCKED	n/a	n/a	+	0	guilty	At this moment	1	2	7	231	NONE	n/a	0	413.726152600083	0.265049547365156	-3.57172811214392e-05	14.9840409046266	810.784019975031	0.230591852421214	734.031988014592	0.0301567141115418	2.13876366369278e-05	17.9265845371658	782.63036963037	3	3	0	1	0	1	1
482.221533208083	5.17086845401303	panas_none	487.392401662096	96	5	16	10	n/a	n/a	n/a	n/a	n/a	n/a	n/a	n/a	2000	0	BLOCKED	n/a	n/a	+	0	hostile	At this moment	1	2	7	231	NONE	n/a	0.230961298377029	1102.13929283976	0.0300339075025182	2.90994313163135e-05	11.5542549740664	1280.90584415584	0	891.070820641527	0.457432037266805	-0.000158792181250652	15.3143439311307	1142.77940046118	1	4	0	1	0	1	1
