onset	duration	trial_type	offset	trial	block	blockCntr	frequency	amplitude_1	amplitude_2	amplitude_3	amplitude_4	amplitude_5	amplitude_6	amplitude_7	amplitude_8	transition	sham	mode	rewardFraction	guess	outcome	correct	word	when	answer	runNr	scanNr	subjectNr	target	reactionTime	outcomeEyeClosed	outcomePupilArea	outcomeDilation	guessEyeClosed	guessPupilArea	guessDilation	nrBlinks	trialInBlock	isReward	isPanas	isPunish	beforePanasReward	beforePanasVLPFC
20.5263644877747	2.54843938650191	punish_rtpj	23.0748038742766	1	3	1	10	750	250	250	250	0	0	0	0	2000	0	BLOCKED	0.25	1	3	-1	n/a	n/a	n/a	1	4	231	RTPJ	1454.26201437786	0	1111.3595505618	0.02125	0.132205995388163	1127.91939769708	0.0302491103202847	1	1	0	0	1	0	0
24.0864494121186	2.52441028288379	punish_rtpj	26.6108596950024	2	3	1	10	750	250	250	250	0	0	0	0	2000	0	BLOCKED	0.25	-1	1	1	n/a	n/a	n/a	1	4	231	RTPJ	730.046446748078	0	1047.92134831461	-0.37875	0	1015.06917755573	0.348461538461538	0	2	0	0	1	0	0
27.5948878959194	2.51875959119201	punish_rtpj	30.1136474871114	3	3	1	10	750	250	250	250	0	0	0	0	2000	0	BLOCKED	0.25	1	2	-1	n/a	n/a	n/a	1	4	231	RTPJ	857.352916285396	0.579275905118602	1426.6409495549	-0.351190476190476	0	1159.40430438125	0.342307692307692	1	3	0	0	1	0	0
31.1143618896902	2.51873067657277	punish_rtpj	33.6330925662629	4	3	1	10	750	250	250	250	0	0	0	0	2000	0	BLOCKED	0.25	1	1	-1	n/a	n/a	n/a	1	4	231	RTPJ	710.299879830331	0.749063670411985	1447.7960199005	-0.338383838383838	0	1310.92697924673	0.246153846153846	1	4	0	0	1	0	0
34.6178048446812	2.51817742007971	punish_rtpj	37.1359822647609	5	3	1	10	750	250	250	250	0	0	0	0	2000	0	BLOCKED	0.25	-1	10	-1	n/a	n/a	n/a	1	4	231	RTPJ	490.60874434188	0.84394506866417	1500.024	-0.0161290322580645	0	1313.76940814758	0.337692307692308	1	5	0	0	1	0	0
38.1367996315882	2.51871339832619	punish_rtpj	40.6555130299144	6	3	1	10	750	250	250	250	0	0	0	0	2000	0	BLOCKED	0.25	1	1	-1	n/a	n/a	n/a	1	4	231	RTPJ	408.059984426945	0.747815230961298	1397.5	0.73	0	1264.74788624135	0.258461538461538	1	6	0	0	1	0	0
41.6562556418776	2.51869329914451	punish_rtpj	44.1749489410222	7	3	1	10	750	250	250	250	0	0	0	0	2000	0	BLOCKED	0.25	-1	9	-1	n/a	n/a	n/a	1	4	231	RTPJ	1041.54289800301	0.802746566791511	1453.19620253165	-0.10828025477707	0.230591852421214	1393.33366633367	0.137137137137137	3	7	0	0	1	0	0
45.1757698340155	2.51884809812531	punish_rtpj	47.6946179321408	8	3	1	10	750	250	250	250	0	0	0	0	2000	0	BLOCKED	0.25	1	10	1	n/a	n/a	n/a	1	4	231	RTPJ	1040.45859991387	0	1317.13857677903	-0.64625	0.235972328977709	1471.80181086519	0.22883064516129	2	8	0	0	1	0	0
48.7075343026109	6.00943392234296	panas_none	54.7169682249539	9	5	2	n/a	n/a	n/a	n/a	n/a	n/a	n/a	n/a	n/a	n/a	n/a	n/a	n/a	n/a	n/a	n/a	determined	At this moment	3	1	4	231	NONE	n/a	0	711.162297128589	0.10125	0	897.519600307456	-0.262307692307692	1	1	0	1	0	0	0
55.7010052413046	6.02164470566064	panas_none	61.7226499469653	10	5	2	n/a	n/a	n/a	n/a	n/a	n/a	n/a	n/a	n/a	n/a	n/a	n/a	n/a	n/a	n/a	n/a	proud	At this moment	3	1	4	231	NONE	n/a	0	1070.2709113608	0.135	0.230591852421214	984.595404595405	0.0560560560560561	2	2	0	1	0	0	0
62.7235039859861	6.02163906378672	panas_none	68.7451430497728	11	5	2	n/a	n/a	n/a	n/a	n/a	n/a	n/a	n/a	n/a	n/a	n/a	n/a	n/a	n/a	n/a	n/a	jittery	At this moment	1	1	4	231	NONE	n/a	0.441947565543071	1054.48098434004	0.0315315315315315	0	891.963873943121	-0.00384615384615385	2	3	0	1	0	0	0
69.7458592154421	7.90645487063378	panas_none	77.6523140860759	12	5	2	n/a	n/a	n/a	n/a	n/a	n/a	n/a	n/a	n/a	n/a	n/a	n/a	n/a	n/a	n/a	n/a	n/a	n/a	n/a	1	4	231	NONE	n/a	0.647940074906367	1289.12411347518	0.387900355871886	0.279016141429669	1126.67484008529	0.12059765208111	4	4	0	1	0	0	0
78.653067276556	2.51871234047412	punish_vlpfc	81.1717796170302	13	4	3	10	0	0	0	0	250	250	250	750	2000	0	BLOCKED	0.25	-1	10	-1	n/a	n/a	n/a	1	4	231	VLPFC	773.878536045551	0	1325.16104868914	-0.32	0	1151.94926979247	0.366153846153846	0	1	0	0	1	0	0
82.17262096183	2.51876734876633	punish_vlpfc	84.6913883105964	14	4	3	10	0	0	0	0	250	250	250	750	2000	0	BLOCKED	0.25	-1	6	-1	n/a	n/a	n/a	1	4	231	VLPFC	323.459697254002	0.134831460674157	1296.10245310245	-0.277456647398844	0.230591852421214	1242.58041958042	0.291291291291291	2	2	0	0	1	0	0
85.675543101117	2.51865839003027	punish_vlpfc	88.1942014911473	15	4	3	10	0	0	0	0	250	250	250	750	2000	0	BLOCKED	0.25	1	3	-1	n/a	n/a	n/a	1	4	231	VLPFC	323.747432943434	0.697877652933833	1467.70661157025	-0.0954356846473029	0	1311.75172943889	0.227692307692308	1	3	0	0	1	0	0
89.1950823290795	2.51883575652167	punish_vlpfc	91.7139180856012	16	4	3	10	0	0	0	0	250	250	250	750	2000	0	BLOCKED	0.25	1	6	1	n/a	n/a	n/a	1	4	231	VLPFC	323.519289575517	0.374531835205993	1125.78443113772	-0.286573146292585	0	1238.00538047656	0.210769230769231	1	4	0	0	1	0	0
92.7145513862111	2.51878427439556	punish_vlpfc	95.2333356606066	17	4	3	10	0	0	0	0	250	250	250	750	2000	0	BLOCKED	0.25	1	4	-1	n/a	n/a	n/a	1	4	231	VLPFC	873.661464855075	0.624219725343321	1476.70431893688	-0.146666666666667	0.25826287471176	1272.41347150259	0.111111111111111	2	5	0	0	1	0	0
96.234130459927	2.51884386671708	punish_vlpfc	98.7529743266441	18	4	3	10	0	0	0	0	250	250	250	750	2000	0	BLOCKED	0.25	-1	8	-1	n/a	n/a	n/a	1	4	231	VLPFC	756.786119289696	0.769038701622971	1429.32432432432	-0.00543478260869565	0	1219.13451191391	0.207692307692308	1	6	0	0	1	0	0
99.7368713539392	2.51885656093806	punish_vlpfc	102.255727914877	19	4	3	10	0	0	0	0	250	250	250	750	2000	0	BLOCKED	0.25	1	7	1	n/a	n/a	n/a	1	4	231	VLPFC	306.692393623292	0	1125.13607990012	-0.4	0	1207.87778631822	0.146923076923077	0	7	0	0	1	0	0
103.256483573679	2.51878885842115	punish_vlpfc	105.7752724321	20	4	3	10	0	0	0	0	250	250	250	750	2000	0	BLOCKED	0.25	1	0	-1	n/a	n/a	n/a	1	4	231	VLPFC	641.995447002351	0	1338.49812734082	-0.275	0	1215.15910837817	0.340769230769231	0	8	0	0	1	0	0
106.759338363066	6.02145464495942	panas_none	112.780793008026	21	5	4	n/a	n/a	n/a	n/a	n/a	n/a	n/a	n/a	n/a	n/a	n/a	n/a	n/a	n/a	n/a	n/a	inspired	At this moment	1	1	4	231	NONE	n/a	0	711.122347066167	-0.05125	0.0914681014604151	901.884940778342	-0.104149026248942	3	1	0	1	0	0	1
113.781740843236	6.02153856786713	panas_none	119.803279411104	22	5	4	n/a	n/a	n/a	n/a	n/a	n/a	n/a	n/a	n/a	n/a	n/a	n/a	n/a	n/a	n/a	n/a	nervous	At this moment	2	1	4	231	NONE	n/a	0	855.353308364544	0.16375	0	856.136049192929	-0.0530769230769231	1	2	0	1	0	0	1
120.804037185609	6.02168349355831	panas_none	126.825720679168	23	5	4	n/a	n/a	n/a	n/a	n/a	n/a	n/a	n/a	n/a	n/a	n/a	n/a	n/a	n/a	n/a	n/a	guilty	At this moment	1	1	4	231	NONE	n/a	0	911.264669163546	0.12375	0	977.295157571099	-0.0369230769230769	2	3	0	1	0	0	1
127.826446365505	11.5260168071501	panas_none	139.352463172656	24	5	4	n/a	n/a	n/a	n/a	n/a	n/a	n/a	n/a	n/a	n/a	n/a	n/a	n/a	n/a	n/a	n/a	n/a	n/a	n/a	1	4	231	NONE	n/a	0.491885143570537	1056.35380835381	0.397530864197531	0.335126825518832	959.828901734104	0.361948955916473	8	4	0	1	0	0	1
140.33662713122	2.5187267977856	reward_vlpfc	142.855353929006	25	2	5	10	0	0	0	0	250	250	250	750	2000	0	BLOCKED	0.75	-1	3	1	n/a	n/a	n/a	1	4	231	VLPFC	608.422404453158	0	996.529338327091	-0.225	0	884.190622598001	0.340769230769231	0	1	1	0	0	0	0
143.839539044607	2.51873455536366	reward_vlpfc	146.358273599971	26	2	5	10	0	0	0	0	250	250	250	750	2000	0	BLOCKED	0.75	-1	3	1	n/a	n/a	n/a	1	4	231	VLPFC	606.649797458202	0.423220973782772	1235.17748917749	-0.336980306345733	0	1199.85780169101	0.225384615384615	1	2	1	0	0	0	0
147.342263012987	2.51879097412899	reward_vlpfc	149.861053987116	27	2	5	10	0	0	0	0	250	250	250	750	2000	0	BLOCKED	0.75	1	2	-1	n/a	n/a	n/a	1	4	231	VLPFC	924.195750541985	0.559300873907616	1350.1671388102	-0.232954545454545	0	1198.26441199078	0.186923076923077	1	3	1	0	0	0	0
150.861902384259	2.51867390519382	reward_vlpfc	153.380576289453	28	2	5	10	0	0	0	0	250	250	250	750	2000	0	BLOCKED	0.75	1	9	1	n/a	n/a	n/a	1	4	231	VLPFC	706.92286426574	0.508114856429463	1279.73096446701	-0.397959183673469	0	1260.75326671791	0.200769230769231	1	4	1	0	0	0	0
154.381380962051	2.51872609255463	reward_vlpfc	156.900107054606	29	2	5	10	0	0	0	0	250	250	250	750	2000	0	BLOCKED	0.75	1	10	1	n/a	n/a	n/a	1	4	231	VLPFC	691.574845131487	0	1128.03870162297	-0.46	0	1149.809377402	0.237692307692308	0	5	1	0	0	0	0
157.884220941517	2.51872644516826	reward_vlpfc	160.402947386686	30	2	5	10	0	0	0	0	250	250	250	750	2000	0	BLOCKED	0.75	-1	3	1	n/a	n/a	n/a	1	4	231	VLPFC	790.693795628846	0	1187.15230961298	-0.28875	0	1187.66026133743	0.273076923076923	0	6	1	0	0	0	0
161.403794020738	2.51880754713716	reward_vlpfc	163.922601567876	31	2	5	10	0	0	0	0	250	250	250	750	2000	0	BLOCKED	0.75	1	2	-1	n/a	n/a	n/a	1	4	231	VLPFC	790.34540977329	0.48689138576779	1364.39902676399	0.0560975609756098	0	1135.476556495	0.229230769230769	1	7	1	0	0	0	0
164.923321612336	2.51875500716642	reward_vlpfc	167.442076619502	32	2	5	10	0	0	0	0	250	250	250	750	2000	0	BLOCKED	0.75	-1	2	1	n/a	n/a	n/a	1	4	231	VLPFC	607.077874820679	0.444444444444444	1356.55056179775	-0.728506787330317	0	1312.02536510377	0.332307692307692	1	8	1	0	0	0	0
168.442930658519	6.02147086535024	panas_none	174.464401523869	33	5	6	n/a	n/a	n/a	n/a	n/a	n/a	n/a	n/a	n/a	n/a	n/a	n/a	n/a	n/a	n/a	n/a	upset	At this moment	1	1	4	231	NONE	n/a	0	851.032459425718	-0.0175	0.18293620292083	1111.47318908749	-0.116760828625235	3	1	0	1	0	1	1
175.465224532571	6.02157629791276	panas_none	181.486800830483	34	5	6	n/a	n/a	n/a	n/a	n/a	n/a	n/a	n/a	n/a	n/a	n/a	n/a	n/a	n/a	n/a	n/a	strong	At this moment	3	1	4	231	NONE	n/a	0	827.732833957553	0.08125	0	901.815526518063	-0.01	2	2	0	1	0	1	1
182.487544500299	6.02165457895023	panas_none	188.509199079249	35	5	6	n/a	n/a	n/a	n/a	n/a	n/a	n/a	n/a	n/a	n/a	n/a	n/a	n/a	n/a	n/a	n/a	determined	At this moment	4	1	4	231	NONE	n/a	0.49812734082397	817.883084577114	1.16876574307305	0	792.67332820907	-0.0138461538461538	2	3	0	1	0	1	1
189.509880335808	11.059190334335	panas_none	200.569070670143	36	5	6	n/a	n/a	n/a	n/a	n/a	n/a	n/a	n/a	n/a	n/a	n/a	n/a	n/a	n/a	n/a	n/a	n/a	n/a	n/a	1	4	231	NONE	n/a	0	1085.14357053683	-0.12	0.459646425826287	972.4893314367	0.164051355206847	7	4	0	1	0	1	1
201.569787893664	2.51872397684679	reward_rtpj	204.088511870511	37	1	7	10	750	250	250	250	0	0	0	0	2000	0	BLOCKED	0.75	1	8	1	n/a	n/a	n/a	1	4	231	RTPJ	942.418305631727	0	1138.96004993758	-0.3125	0.294388931591084	1091.31808278867	0.269146608315098	1	1	1	0	0	0	0
205.072771740973	2.51862136521936	reward_rtpj	207.591393106192	38	1	7	10	750	250	250	250	0	0	0	0	2000	0	BLOCKED	0.75	1	9	1	n/a	n/a	n/a	1	4	231	RTPJ	590.544356428087	0.420724094881398	1118.93318965517	-0.503253796095445	0	1052.66333589547	0.304615384615385	1	2	1	0	0	0	0
208.592187905509	2.51871904020382	reward_rtpj	211.110906945713	39	1	7	10	750	250	250	250	0	0	0	0	2000	0	BLOCKED	0.75	-1	4	1	n/a	n/a	n/a	1	4	231	RTPJ	656.72638592869	0.473158551810237	1240.24170616114	-0.724465558194774	0.279016141429669	1269.65671641791	0.154340836012862	2	3	1	0	0	0	0
212.094958066758	2.51878074822204	reward_rtpj	214.61373881498	40	1	7	10	750	250	250	250	0	0	0	0	2000	0	BLOCKED	0.75	-1	2	1	n/a	n/a	n/a	1	4	231	RTPJ	790.500913981348	0.408239700374532	1246.67510548523	-0.550847457627119	0	1297.28747117602	0.173076923076923	1	4	1	0	0	0	0
215.614594969705	2.51877263802663	reward_rtpj	218.133367607731	41	1	7	10	750	250	250	250	0	0	0	0	2000	0	BLOCKED	0.75	1	1	-1	n/a	n/a	n/a	1	4	231	RTPJ	673.48205319047	0.400749063670412	1393.64166666667	-0.507306889352818	0	1245.52728670254	0.250769230769231	1	5	1	0	0	0	0
219.13410739876	2.51871833496915	reward_rtpj	221.652825733729	42	1	7	10	750	250	250	250	0	0	0	0	2000	0	BLOCKED	0.75	1	8	1	n/a	n/a	n/a	1	4	231	RTPJ	508.897238865495	0.568039950062422	1326.06647398844	-1	0	1261.24058416603	0.268461538461538	1	6	1	0	0	0	0
222.636968887873	2.51870035148784	reward_rtpj	225.155669239361	43	1	7	10	750	250	250	250	0	0	0	0	2000	0	BLOCKED	0.75	1	10	1	n/a	n/a	n/a	1	4	231	RTPJ	574.795764077455	0.393258426966292	1187.670781893	-0.334710743801653	0	1138.16295157571	0.238461538461538	1	7	1	0	0	0	0
226.139859996844	2.51870176195726	reward_rtpj	228.658561758801	44	1	7	10	750	250	250	250	0	0	0	0	2000	0	BLOCKED	0.75	-1	8	-1	n/a	n/a	n/a	1	4	231	RTPJ	557.037253305316	0	1233.32209737828	-0.26	0	1215.37509607994	0.211538461538462	1	8	1	0	0	0	0
229.642728185687	6.02155831443517	panas_none	235.664286500122	45	5	8	n/a	n/a	n/a	n/a	n/a	n/a	n/a	n/a	n/a	n/a	n/a	n/a	n/a	n/a	n/a	n/a	hostile	At this moment	1	1	4	231	NONE	n/a	0	716.485642946317	0.115	0.0153727901614143	909.370023419204	-0.2140625	2	1	0	1	0	1	0
236.664975161642	6.02165951558948	panas_none	242.686634677231	46	5	8	n/a	n/a	n/a	n/a	n/a	n/a	n/a	n/a	n/a	n/a	n/a	n/a	n/a	n/a	n/a	n/a	alert	At this moment	5	1	4	231	NONE	n/a	0	725.339575530587	0.18875	0	794.288239815526	-0.171538461538462	1	2	0	1	0	1	0
243.687503526174	6.02141056779772	panas_none	249.708914093971	47	5	8	n/a	n/a	n/a	n/a	n/a	n/a	n/a	n/a	n/a	n/a	n/a	n/a	n/a	n/a	n/a	n/a	excited	At this moment	3	1	4	231	NONE	n/a	0	869.96379525593	0.01875	0	918.594158339739	-0.0530769230769231	1	3	0	1	0	1	0
250.709956783228	6.17151656455175	panas_none	256.881473347779	48	5	8	n/a	n/a	n/a	n/a	n/a	n/a	n/a	n/a	n/a	n/a	n/a	n/a	n/a	n/a	n/a	n/a	n/a	n/a	n/a	1	4	231	NONE	n/a	0.838951310861423	1207.09302325581	-0.4765625	0.648731744811683	984.573304157549	0.18021978021978	5	4	0	1	0	1	0
257.887946342938	2.51304860194028	punish_vlpfc	260.400994944878	49	4	9	10	0	0	0	0	250	250	250	750	2000	0	BLOCKED	0.25	-1	0	1	n/a	n/a	n/a	1	4	231	VLPFC	1153.34584419057	0	1286.47315855181	-0.32625	0	1295.70023059185	0.326153846153846	0	1	0	0	1	0	0
261.401781986617	2.51884034054729	punish_vlpfc	263.920622327164	50	4	9	10	0	0	0	0	250	250	250	750	2000	0	BLOCKED	0.25	-1	7	-1	n/a	n/a	n/a	1	4	231	VLPFC	307.452989067882	0.578027465667915	1473.00295857988	-0.00598802395209581	0	1307.26902382782	0.274615384615385	1	2	0	0	1	0	0
264.921313457005	2.51884915597736	punish_vlpfc	267.440162612982	51	4	9	10	0	0	0	0	250	250	250	750	2000	0	BLOCKED	0.25	-1	2	1	n/a	n/a	n/a	1	4	231	VLPFC	757.107706237584	0	1263.49687890137	-0.25	0.259031514219831	1310.14107883817	0.173777315296566	1	3	0	0	1	0	0
268.424221138984	2.51868765726687	punish_vlpfc	270.942908796251	52	4	9	10	0	0	0	0	250	250	250	750	2000	0	BLOCKED	0.25	-1	8	-1	n/a	n/a	n/a	1	4	231	VLPFC	540.583073806018	0.544319600499376	1546.36164383562	0.145604395604396	0.233666410453497	1337.61685055166	0.132796780684105	2	4	0	0	1	0	0
271.927048776843	2.51865627432989	punish_vlpfc	274.445705051173	53	4	9	10	0	0	0	0	250	250	250	750	2000	0	BLOCKED	0.25	-1	8	-1	n/a	n/a	n/a	1	4	231	VLPFC	940.337863761932	0.580524344569288	1537.02380952381	-0.140298507462687	0.235203689469639	1376.97185929648	0.180261832829809	2	5	0	0	1	0	0
275.429969153043	2.5186932991445	punish_vlpfc	277.948662452187	54	4	9	10	0	0	0	0	250	250	250	750	2000	0	BLOCKED	0.25	1	1	-1	n/a	n/a	n/a	1	4	231	VLPFC	457.707790303975	0.737827715355805	1535.7	-0.182692307692308	0	1367.24519600307	0.228461538461538	1	6	0	0	1	0	0
278.949436094467	2.51870740383862	punish_vlpfc	281.468143498305	55	4	9	10	0	0	0	0	250	250	250	750	2000	0	BLOCKED	0.25	-1	6	-1	n/a	n/a	n/a	1	4	231	VLPFC	539.730445258319	0.652933832709114	1356.37410071942	-0.324909747292419	0	1253.89623366641	0.211538461538462	1	7	0	0	1	0	0
282.468860369205	2.5189041642696	punish_vlpfc	284.987764533475	56	4	9	10	0	0	0	0	250	250	250	750	2000	0	BLOCKED	0.25	1	0	-1	n/a	n/a	n/a	1	4	231	VLPFC	291.091547906399	0	1521.06991260924	-0.035	0	1324.87855495772	0.273846153846154	0	8	0	0	1	0	0
285.988604115184	6.02147157058494	panas_none	292.010075685769	57	5	10	n/a	n/a	n/a	n/a	n/a	n/a	n/a	n/a	n/a	n/a	n/a	n/a	n/a	n/a	n/a	n/a	active	At this moment	2	1	4	231	NONE	n/a	0	859.717852684145	0.055	0.0714834742505765	1099.14735099338	-0.212924606462303	3	1	0	1	0	0	1
293.010781272918	6.02165387371554	panas_none	299.032435146634	58	5	10	n/a	n/a	n/a	n/a	n/a	n/a	n/a	n/a	n/a	n/a	n/a	n/a	n/a	n/a	n/a	n/a	determined	At this moment	4	1	4	231	NONE	n/a	0	906.651685393258	0.15125	0.255188316679477	984.643962848297	0.0663212435233161	3	2	0	1	0	0	1
300.033313163627	6.02158617119863	panas_none	306.054899334826	59	5	10	n/a	n/a	n/a	n/a	n/a	n/a	n/a	n/a	n/a	n/a	n/a	n/a	n/a	n/a	n/a	n/a	proud	At this moment	3	1	4	231	NONE	n/a	0.157303370786517	954.121481481482	0.0370919881305638	0	936.658724058417	0.1	2	3	0	1	0	0	1
307.05556119743	10.4085638745055	panas_none	317.464125071935	60	5	10	n/a	n/a	n/a	n/a	n/a	n/a	n/a	n/a	n/a	n/a	n/a	n/a	n/a	n/a	n/a	n/a	n/a	n/a	n/a	1	4	231	NONE	n/a	0.81772784019975	1168.08219178082	-0.227586206896552	0.277478862413528	1048.92446808511	0.248665955176094	7	4	0	1	0	0	1
318.464855342295	2.5187624121271	reward_vlpfc	320.983617754422	61	2	11	10	0	0	0	0	250	250	250	750	2000	0	BLOCKED	0.75	1	7	1	n/a	n/a	n/a	1	4	231	VLPFC	841.419199869037	0	1236.78401997503	-0.37375	0	1203.02767102229	0.277692307692308	0	1	1	0	0	0	0
321.984453809962	2.51874513388054	reward_vlpfc	324.503198943842	62	2	11	10	0	0	0	0	250	250	250	750	2000	0	BLOCKED	0.75	1	6	1	n/a	n/a	n/a	1	4	231	VLPFC	774.647594302893	0.433208489388265	1201.61674008811	-0.133630289532294	0	1015.72559569562	0.32	1	2	1	0	0	0	0
325.504019836839	2.51865733217818	reward_vlpfc	328.022677169017	63	2	11	10	0	0	0	0	250	250	250	750	2000	0	BLOCKED	0.75	-1	6	-1	n/a	n/a	n/a	1	4	231	VLPFC	706.761718176305	0.491885143570537	1524.66339066339	-0.177339901477833	0.234435049961568	1339.90261044177	0.308853118712274	2	3	1	0	0	0	0
329.00676037823	2.51877016971264	reward_vlpfc	331.525530547943	64	2	11	10	0	0	0	0	250	250	250	750	2000	0	BLOCKED	0.75	-1	2	1	n/a	n/a	n/a	1	4	231	VLPFC	440.778282728046	0.563046192259675	1390.23142857143	-0.238505747126437	0	1362.809377402	0.210769230769231	1	4	1	0	0	0	0
332.52635849328	2.51872221376374	reward_vlpfc	335.045080707043	65	2	11	10	0	0	0	0	250	250	250	750	2000	0	BLOCKED	0.75	-1	0	1	n/a	n/a	n/a	1	4	231	VLPFC	356.29083308205	0.559300873907616	1224.9178470255	0.1	0	1201.04842428901	0.17	1	5	1	0	0	0	0
336.045893489838	2.51885550308975	reward_vlpfc	338.564748992927	66	2	11	10	0	0	0	0	250	250	250	750	2000	0	BLOCKED	0.75	-1	3	1	n/a	n/a	n/a	1	4	231	VLPFC	290.166280202568	0.374531835205993	1352.00399201597	-0.567134268537074	0	1327.21752498078	0.334615384615385	1	6	1	0	0	0	0
339.548703144219	2.51878356916455	reward_vlpfc	342.067486713383	67	2	11	10	0	0	0	0	250	250	250	750	2000	0	BLOCKED	0.75	1	7	1	n/a	n/a	n/a	1	4	231	VLPFC	340.326438959688	0.428214731585518	1355.37554585153	-0.107456140350877	0	1279.42198308993	0.222307692307692	1	7	1	0	0	0	0
343.051580148496	2.51877016970514	reward_vlpfc	345.570350318201	68	2	11	10	0	0	0	0	250	250	250	750	2000	0	BLOCKED	0.75	1	4	-1	n/a	n/a	n/a	1	4	231	VLPFC	590.310571182519	0.606741573033708	1262.21904761905	0.235668789808917	0	1066.45119139124	0.176923076923077	1	8	1	0	0	0	0
346.571111266263	6.02152869458496	panas_none	352.592639960848	69	5	12	n/a	n/a	n/a	n/a	n/a	n/a	n/a	n/a	n/a	n/a	n/a	n/a	n/a	n/a	n/a	n/a	enthusiastic	At this moment	4	1	4	231	NONE	n/a	0	668.580524344569	-0.01875	0	1046.4289008455	-0.473846153846154	2	1	0	1	0	1	1
353.577063798338	6.02135238594934	panas_none	359.598416184288	70	5	12	n/a	n/a	n/a	n/a	n/a	n/a	n/a	n/a	n/a	n/a	n/a	n/a	n/a	n/a	n/a	n/a	alert	At this moment	4	1	4	231	NONE	n/a	0	803.822721598003	0.09875	0	829.624135280553	-0.0392307692307692	3	2	0	1	0	1	1
360.599265286665	6.02149413808809	panas_none	366.620759424753	71	5	12	n/a	n/a	n/a	n/a	n/a	n/a	n/a	n/a	n/a	n/a	n/a	n/a	n/a	n/a	n/a	n/a	excited	At this moment	3	1	4	231	NONE	n/a	0.204744069912609	904.084772370487	-0.0330188679245283	0	919.535741737125	0.0861538461538462	2	3	0	1	0	1	1
367.62157291279	7.03905976721273	panas_none	374.660632680003	72	5	12	n/a	n/a	n/a	n/a	n/a	n/a	n/a	n/a	n/a	n/a	n/a	n/a	n/a	n/a	n/a	n/a	n/a	n/a	n/a	1	4	231	NONE	n/a	0.299625468164794	1208.85383244207	0.426785714285714	0.00307455803228286	1155.16037008481	0.0216049382716049	3	4	0	1	0	1	1
375.661510697	2.51869083081931	reward_rtpj	378.180201527819	73	1	13	10	750	250	250	250	0	0	0	0	2000	0	BLOCKED	0.75	-1	4	1	n/a	n/a	n/a	1	4	231	RTPJ	707.404892068356	0	1205.91011235955	-0.225	0.265180630284397	1192.80439330544	0.357442348008386	1	1	1	0	0	0	0
379.181000911161	2.51869576746975	reward_rtpj	381.699696678631	74	1	13	10	750	250	250	250	0	0	0	0	2000	0	BLOCKED	0.75	-1	0	1	n/a	n/a	n/a	1	4	231	RTPJ	590.883221626282	0.368289637952559	1156.00790513834	-0.304950495049505	0.310530361260569	1155.42697881828	0.350111856823266	2	2	1	0	0	0	0
382.683901540797	2.5186502798349	reward_rtpj	385.202551820632	75	1	13	10	750	250	250	250	0	0	0	0	2000	0	BLOCKED	0.75	-1	2	1	n/a	n/a	n/a	1	4	231	RTPJ	823.348975434899	0.374531835205993	1211.41317365269	-0.272545090180361	0	1244.11913912375	0.153846153846154	1	3	1	0	0	0	0
386.18661140449	2.51876946447419	reward_rtpj	388.705380868964	76	1	13	10	750	250	250	250	0	0	0	0	2000	0	BLOCKED	0.75	1	1	-1	n/a	n/a	n/a	1	4	231	RTPJ	423.538471955806	0.722846441947566	1403.28828828829	-0.0135746606334842	0	1235.05226748655	0.216153846153846	2	4	1	0	0	0	0
389.706228208251	2.51877122756468	reward_rtpj	392.224999435816	77	1	13	10	750	250	250	250	0	0	0	0	2000	0	BLOCKED	0.75	1	6	1	n/a	n/a	n/a	1	4	231	RTPJ	342.469646710902	0.656679151061174	1294.00727272727	-0.161764705882353	0	1212.4950038432	0.278461538461538	1	5	1	0	0	0	0
393.209147526603	2.51873314489421	reward_rtpj	395.727880671497	78	1	13	10	750	250	250	250	0	0	0	0	2000	0	BLOCKED	0.75	1	6	1	n/a	n/a	n/a	1	4	231	RTPJ	324.04786285758	0	1053.83395755306	-0.3675	0	1089.93620292083	0.153846153846154	0	6	1	0	0	0	0
396.711841522519	2.51884809812157	reward_rtpj	399.23068962064	79	1	13	10	750	250	250	250	0	0	0	0	2000	0	BLOCKED	0.75	1	2	-1	n/a	n/a	n/a	1	4	231	RTPJ	407.826904412359	0.524344569288389	1299.13910761155	-0.0317460317460317	0	1057.85165257494	0.275384615384615	1	7	1	0	0	0	0
400.231425532877	2.51873843415456	reward_rtpj	402.750163967032	80	1	13	10	750	250	250	250	0	0	0	0	2000	0	BLOCKED	0.75	-1	3	1	n/a	n/a	n/a	1	4	231	RTPJ	539.912043150514	0.500624219725343	1368.7975	-0.624685138539043	0	1319.15603382014	0.289230769230769	1	8	1	0	0	0	0
403.750975691978	6.02153045766801	panas_none	409.772506149646	81	5	14	n/a	n/a	n/a	n/a	n/a	n/a	n/a	n/a	n/a	n/a	n/a	n/a	n/a	n/a	n/a	n/a	nervous	At this moment	1	1	4	231	NONE	n/a	0.379525593008739	833.13078470825	0.385858585858586	0	996.338201383551	-0.437692307692308	5	1	0	1	0	1	0
410.773520629521	6.02140139974654	panas_none	416.794922029268	82	5	14	n/a	n/a	n/a	n/a	n/a	n/a	n/a	n/a	n/a	n/a	n/a	n/a	n/a	n/a	n/a	n/a	afraid	At this moment	1	1	4	231	NONE	n/a	0	884.523096129838	0.10125	0	921.354342813221	0.0246153846153846	2	2	0	1	0	1	0
417.795764784537	6.02168984067066	panas_none	423.817454625208	83	5	14	n/a	n/a	n/a	n/a	n/a	n/a	n/a	n/a	n/a	n/a	n/a	n/a	n/a	n/a	n/a	n/a	strong	At this moment	3	1	4	231	NONE	n/a	0.589263420724095	876.370820668693	0.561349693251534	0	856.730976172175	0.0415384615384615	3	3	0	1	0	1	0
424.818134471301	13.6444620047845	panas_none	438.462596476085	84	5	14	n/a	n/a	n/a	n/a	n/a	n/a	n/a	n/a	n/a	n/a	n/a	n/a	n/a	n/a	n/a	n/a	n/a	n/a	n/a	1	4	231	NONE	n/a	0	1166.66791510612	0.13375	0.25826287471176	924.091191709845	0.213914849428868	6	4	0	1	0	1	0
439.44670507374	2.5187377289198	punish_rtpj	441.96544280266	85	3	15	10	750	250	250	250	0	0	0	0	2000	0	BLOCKED	0.25	-1	0	1	n/a	n/a	n/a	1	4	231	RTPJ	607.782404117286	0	1073.94257178527	-0.31	0	1060.13912375096	0.359230769230769	1	1	0	0	1	0	0
442.96620480857	2.51879167936369	punish_rtpj	445.484996487934	86	3	15	10	750	250	250	250	0	0	0	0	2000	0	BLOCKED	0.25	-1	10	-1	n/a	n/a	n/a	1	4	231	RTPJ	907.10333378613	0	1107.30711610487	-0.14	0	958.496541122214	0.169230769230769	0	2	0	0	1	0	0
446.485753909819	2.51875042314083	punish_rtpj	449.00450433296	87	3	15	10	750	250	250	250	0	0	0	0	2000	0	BLOCKED	0.25	1	3	-1	n/a	n/a	n/a	1	4	231	RTPJ	373.261949498206	0.511860174781523	1348.49360613811	-0.149100257069409	0	1143.17678708686	0.230769230769231	1	3	0	0	1	0	0
449.98863161933	2.51868483633177	punish_rtpj	452.507316455662	88	3	15	10	750	250	250	250	0	0	0	0	2000	0	BLOCKED	0.25	1	9	1	n/a	n/a	n/a	1	4	231	RTPJ	340.499574039131	0.484394506866417	1313.34866828087	-0.373170731707317	0	1285.03074558032	0.193076923076923	1	4	0	0	1	0	0
453.491391554676	2.51873455536366	punish_rtpj	456.01012611004	89	3	15	10	750	250	250	250	0	0	0	0	2000	0	BLOCKED	0.25	-1	10	-1	n/a	n/a	n/a	1	4	231	RTPJ	289.746313035488	0.563046192259675	1436.29142857143	-0.32378223495702	0	1268.4189085319	0.206923076923077	1	5	0	0	1	0	0
456.994688878737	2.51831247249243	punish_rtpj	459.51300135123	90	3	15	10	750	250	250	250	0	0	0	0	2000	0	BLOCKED	0.25	-1	7	-1	n/a	n/a	n/a	1	4	231	RTPJ	589.851110879332	0.682896379525593	1379.57480314961	0.0434782608695652	0.24750192159877	1213.07456588355	0.262026612077789	2	6	0	0	1	0	0
460.513895941235	2.51878991627689	punish_rtpj	463.032685857512	91	3	15	10	750	250	250	250	0	0	0	0	2000	0	BLOCKED	0.25	-1	9	-1	n/a	n/a	n/a	1	4	231	RTPJ	623.881145413965	0.82521847690387	1364.9	0.202898550724638	0.272098385857033	1208.82154171067	0.299470899470899	2	7	0	0	1	0	0
464.016606510162	2.51875747548786	punish_rtpj	466.53536398565	92	3	15	10	750	250	250	250	0	0	0	0	2000	0	BLOCKED	0.25	1	3	-1	n/a	n/a	n/a	1	4	231	RTPJ	891.817727901042	0.641697877652934	1484.93379790941	0.74468085106383	0.276710222905457	1256.86184909671	0.301705756929638	2	8	0	0	1	0	0
467.536481077146	6.02131395066903	panas_none	473.557795027815	93	5	16	n/a	n/a	n/a	n/a	n/a	n/a	n/a	n/a	n/a	n/a	n/a	n/a	n/a	n/a	n/a	n/a	afraid	At this moment	1	1	4	231	NONE	n/a	0	830.118601747815	0.03	0	1158.39584934666	-0.481538461538462	3	1	0	1	0	0	0
474.541859195698	6.02161261749268	panas_none	480.563471813191	94	5	16	n/a	n/a	n/a	n/a	n/a	n/a	n/a	n/a	n/a	n/a	n/a	n/a	n/a	n/a	n/a	n/a	jittery	At this moment	2	1	4	231	NONE	n/a	0.861423220973783	796.135135135135	0.876190476190476	0.0353574173712529	1102.25258964143	-0.131578947368421	4	2	0	1	0	0	0
481.56427860149	6.02161543843522	panas_none	487.585894039925	95	5	16	n/a	n/a	n/a	n/a	n/a	n/a	n/a	n/a	n/a	n/a	n/a	n/a	n/a	n/a	n/a	n/a	active	At this moment	3	1	4	231	NONE	n/a	0	1049.0024968789	0.05375	0.243658724058417	960.52337398374	0.174134419551935	2	3	0	1	0	0	0
488.586607032035	7.37274712828923	panas_none	495.959354160324	96	5	16	n/a	n/a	n/a	n/a	n/a	n/a	n/a	n/a	n/a	n/a	n/a	n/a	n/a	n/a	n/a	n/a	n/a	n/a	n/a	1	4	231	NONE	n/a	0.413233458177278	1326.40212765957	-0.196581196581197	0.287471176018447	1214.4498381877	0.27027027027027	6	4	0	1	0	0	0
