onset	duration	trial_type	offset	trial	block	blockCntr	frequency	amplitude_1	amplitude_2	amplitude_3	amplitude_4	amplitude_5	amplitude_6	amplitude_7	amplitude_8	transition	sham	mode	rewardFraction	guess	outcome	correct	word	when	answer	runNr	scanNr	subjectNr	target	reactionTime	outcomeEyeClosed	outcomeParms_1	outcomeParms_2	outcomeParms_3	outcomeSigma	outcomePupilArea	guessEyeClosed	guessParms_1	guessParms_2	guessParms_3	guessSigma	guessPupilArea	nrBlinks	trialInBlock	isReward	isPanas	isPunish	beforePanasReward	beforePanasVLPFC
20.3657283762097	2.5090460370183	punish_rtpj	22.874774413228	1	3	1	10	750	250	250	250	0	0	0	0	2000	0	BLOCKED	0.25	1	0	-1	active	At this moment	3	3	11	227	RTPJ	597.955597043037	0.659176029962547	n/a	n/a	n/a	n/a	2187.30769230769	0.230591852421214	2378.71393944288	0.246592162116437	-0.000281803296189659	122.709979688519	2380.5044955045	3	1	0	0	1	0	0
23.8759652008414	2.51847924751043	punish_rtpj	26.3944444483519	2	3	1	10	750	250	250	250	0	0	0	0	2000	0	BLOCKED	0.25	1	4	-1	scared	At this moment	3	3	11	227	RTPJ	1173.96360576153	1	n/a	n/a	n/a	n/a	n/a	1	n/a	n/a	n/a	n/a	n/a	3	2	0	0	1	0	0
27.378539657712	2.5187479416132	punish_rtpj	29.8972875993252	3	3	1	10	750	250	250	250	0	0	0	0	2000	0	BLOCKED	0.25	-1	8	-1	enthusiastic	At this moment	3	3	11	227	RTPJ	356.504267752171	0.972534332084894	n/a	n/a	n/a	n/a	2147.04545454545	0	1340.43789275678	1.10487638403925	-0.000295829825550748	69.4994990126004	2022.49116064566	2	3	0	0	1	0	0
30.8814060814381	2.51861500501633	punish_rtpj	33.4000210864544	4	3	1	10	750	250	250	250	0	0	0	0	2000	0	BLOCKED	0.25	-1	10	-1	proud	At this moment	2	3	11	227	RTPJ	257.795128107071	0.697877652933833	n/a	n/a	n/a	n/a	1987.33884297521	0.230591852421214	1374.66185728027	0.533487073422395	-5.54733532722871e-05	39.2077597715698	1843.82117882118	2	4	0	0	1	0	0
34.4040518515706	2.51563327550888	punish_rtpj	36.9196851270795	5	3	1	10	750	250	250	250	0	0	0	0	2000	0	BLOCKED	0.25	1	9	1	upset	At this moment	4	3	11	227	RTPJ	320.445651471615	0.374531835205993	n/a	n/a	n/a	n/a	1765.58882235529	0	1228.29331825582	1.0094614304988	-0.000143334442003166	40.5083214798165	1961.47194465796	1	5	0	0	1	0	0
37.9038222979307	2.5186735393405	punish_rtpj	40.4224958372712	6	3	1	10	750	250	250	250	0	0	0	0	2000	0	BLOCKED	0.25	1	0	-1	afraid	At this moment	4	3	11	227	RTPJ	307.412221252918	0.431960049937578	n/a	n/a	n/a	n/a	1752.91428571429	0.203689469638739	589.897822445408	1.90879799321221	-0.000696822293537775	26.4971737806378	1715.92953667954	2	6	0	0	1	0	0
41.4066368868947	2.51876557248831	punish_rtpj	43.925402459383	7	3	1	10	750	250	250	250	0	0	0	0	2000	0	BLOCKED	0.25	1	1	-1	strong	At this moment	3	3	11	227	RTPJ	307.417510569096	0.419475655430712	n/a	n/a	n/a	n/a	1649.2688172043	0	1070.09888332019	1.07377610549767	-0.00035897298586783	28.198549635454	1673.09146810146	1	7	0	0	1	0	0
44.9094017570019	2.51876063579321	punish_rtpj	47.4281623927951	8	3	1	10	750	250	250	250	0	0	0	0	2000	0	BLOCKED	0.25	1	6	1	hostile	At this moment	4	3	11	227	RTPJ	290.808191180229	0.369538077403246	n/a	n/a	n/a	n/a	1464.55643564356	0	1054.06622812286	1.02780968657164	-0.000202904617529799	49.1630493975979	1749.60568793236	1	8	0	0	1	0	0
48.4123238942027	6.00486329388619	panas_none	54.4171871880889	9	5	2	10	n/a	n/a	n/a	n/a	n/a	n/a	n/a	n/a	2000	0	BLOCKED	n/a	n/a	+	0	interested	At this moment	3	3	11	227	NONE	n/a	0.290886392009988	n/a	n/a	n/a	n/a	1243.5985915493	0.0276710222905457	566.046669373806	1.79196305019632	-0.00101654082089435	85.923169485549	1224.45454545455	5	1	0	1	0	0	0
55.4012524250746	6.00497260522842	panas_none	61.406225030303	10	5	2	10	n/a	n/a	n/a	n/a	n/a	n/a	n/a	n/a	2000	0	BLOCKED	n/a	n/a	+	0	alert	At this moment	2	3	11	227	NONE	n/a	0.264669163545568	n/a	n/a	n/a	n/a	1812.61460101868	0.148347425057648	1786.00319365446	-0.137971116816835	1.25714730333082e-05	48.5965491138438	1664.91967509025	4	2	0	1	0	0	0
62.3903315234184	6.00479100739956	panas_none	68.395122530818	11	5	2	10	n/a	n/a	n/a	n/a	n/a	n/a	n/a	n/a	2000	0	BLOCKED	n/a	n/a	+	0	jittery	At this moment	2	3	11	227	NONE	n/a	0	-181.570516601592	1.58675690887255	-0.000359411161381173	12.9518652515026	1546.46566791511	0.140661029976941	1788.22780626906	-0.66347065998619	0.000274896281272985	27.4418638225143	1425.43381037567	3	3	0	1	0	0	0
69.3794324840307	14.7119122491479	panas_none	84.0913447331786	12	5	2	10	n/a	n/a	n/a	n/a	n/a	n/a	n/a	n/a	2000	0	BLOCKED	n/a	n/a	+	0	hostile	At this moment	2	3	11	227	NONE	n/a	0	1478.38900250531	0.179832922537368	1.13499729022765e-05	12.4901884884991	1906.33333333333	0.230591852421214	946.157452451382	0.742336376165664	-0.000136618153822258	25.5159348020798	1478.33566433566	7	4	0	1	0	0	0
85.0921860773563	2.51867918127775	reward_rtpj	87.6108652586341	13	1	3	10	750	250	250	250	0	0	0	0	2000	0	BLOCKED	0.75	1	3	-1	strong	At this moment	2	3	11	227	RTPJ	507.529078602791	0.440699126092385	n/a	n/a	n/a	n/a	2041.046875	0	1077.5635651518	0.878050172184828	-0.000116816037142838	57.7506303224637	1723.43735588009	1	1	1	0	0	0	0
88.5948786609173	2.51871761655806	reward_rtpj	91.1135962774754	14	1	3	10	750	250	250	250	0	0	0	0	2000	0	BLOCKED	0.75	1	8	1	scared	At this moment	4	3	11	227	RTPJ	374.564958751202	0.491885143570537	n/a	n/a	n/a	n/a	1328.89680589681	0	980.571402688962	0.996624078793724	-0.000333818240947511	48.9232267679714	1540.22367409685	2	2	1	0	0	0	0
92.0978342967629	2.51871761655808	reward_rtpj	94.616551913321	15	1	3	10	750	250	250	250	0	0	0	0	2000	0	BLOCKED	0.75	1	6	1	proud	At this moment	1	3	11	227	RTPJ	390.11924803257	0.399500624219725	n/a	n/a	n/a	n/a	1384.47401247401	0	1229.80378706275	0.733559908966342	-0.000155882365422505	56.3154279936433	1719.19446579554	1	3	1	0	0	0	0
95.6006989574432	2.51871937960385	reward_rtpj	98.1194183370471	16	1	3	10	750	250	250	250	0	0	0	0	2000	0	BLOCKED	0.75	1	3	-1	upset	At this moment	5	3	11	227	RTPJ	339.793747246265	0.428214731585518	n/a	n/a	n/a	n/a	1542.9519650655	0	1131.61951696768	0.718055776014995	-0.000125520158075142	55.646233073592	1631.71867794005	1	4	1	0	0	0	0
99.1035883012414	2.51882269644737	reward_rtpj	101.622410997689	17	1	3	10	750	250	250	250	0	0	0	0	2000	0	BLOCKED	0.75	1	6	1	afraid	At this moment	2	3	11	227	RTPJ	439.693321943283	0.388264669163546	n/a	n/a	n/a	n/a	1289.48367346939	0.284396617986165	n/a	n/a	n/a	n/a	1559.35123523093	3	5	1	0	0	0	0
102.606297810435	2.51882410687209	reward_rtpj	105.125121917307	18	1	3	10	750	250	250	250	0	0	0	0	2000	0	BLOCKED	0.75	1	6	1	alert	At this moment	4	3	11	227	RTPJ	373.4016751647	0.374531835205993	n/a	n/a	n/a	n/a	1441.73253493014	0	1082.19742056012	-0.0345870060881776	0.000283285051178766	21.5090279044866	1296.96079938509	2	6	1	0	0	0	0
106.109229820907	2.51871091681718	reward_rtpj	108.627940737724	19	1	3	10	750	250	250	250	0	0	0	0	2000	0	BLOCKED	0.75	1	10	1	guilty	At this moment	5	3	11	227	RTPJ	440.900682628155	0.374531835205993	n/a	n/a	n/a	n/a	1346.58283433134	0	781.046718077598	1.30864540723477	-0.000479391578695476	22.5073185720728	1502.28132205995	2	7	1	0	0	0	0
109.612094481587	2.51870633274318	reward_rtpj	112.130800814331	20	1	3	10	750	250	250	250	0	0	0	0	2000	0	BLOCKED	0.75	1	9	1	proud	At this moment	5	3	11	227	RTPJ	1174.28695547581	0.398252184769039	n/a	n/a	n/a	n/a	1444.06639004149	0	1164.59274999719	0.728521005752859	-0.000180030952037657	43.5526156216112	1623.65180630284	2	8	1	0	0	0	0
113.131558235705	6.00498529940843	panas_none	119.136543535113	21	5	4	10	n/a	n/a	n/a	n/a	n/a	n/a	n/a	n/a	2000	0	BLOCKED	n/a	n/a	+	0	hostile	At this moment	3	3	11	227	NONE	n/a	0.106117353308365	1780.54857926467	-1.12298754698417	0.000372368076852067	10.9721334622391	1062.14245810056	0	1416.40297885481	-0.597056685011289	0.000211064567360134	36.1613955775964	1091.62336664105	2	1	0	1	0	1	0
120.120698689401	6.00483085316419	panas_none	126.125529542565	22	5	4	10	n/a	n/a	n/a	n/a	n/a	n/a	n/a	n/a	2000	0	BLOCKED	n/a	n/a	+	0	nervous	At this moment	1	3	11	227	NONE	n/a	0.373283395755306	n/a	n/a	n/a	n/a	915.352589641434	0.231360491929285	873.080015749956	-0.0298745408233811	1.14792494196629e-05	25.0489388443642	833.352	5	2	0	1	0	1	0
127.109604652822	6.00491019195317	panas_none	133.114514844775	23	5	4	10	n/a	n/a	n/a	n/a	n/a	n/a	n/a	n/a	2000	0	BLOCKED	n/a	n/a	+	0	irritable	At this moment	1	3	11	227	NONE	n/a	0.14856429463171	2088.16377088681	-1.58187523718186	0.000516317916868454	15.0304484893991	1029.92961876833	0.448885472713297	n/a	n/a	n/a	n/a	879.682008368201	5	3	0	1	0	1	0
134.098552930236	7.6229811794162	panas_none	141.721534109652	24	5	4	10	n/a	n/a	n/a	n/a	n/a	n/a	n/a	n/a	2000	0	BLOCKED	n/a	n/a	+	0	distressed	At this moment	4	3	11	227	NONE	n/a	0.146067415730337	-2280.91618542146	3.63378055534345	-0.000773469543718192	17.5725812711837	1912.58479532164	0.364335126825519	n/a	n/a	n/a	n/a	1599.45344619105	3	4	0	1	0	1	0
142.705661054611	2.51870527493955	punish_vlpfc	145.224366329551	25	4	5	10	0	0	0	0	250	250	250	750	2000	0	BLOCKED	0.25	1	1	-1	attentive	At this moment	3	3	11	227	VLPFC	523.784370481968	0.374531835205993	n/a	n/a	n/a	n/a	1593.15768463074	0	1073.84474621629	0.940573886847587	-0.000292456081172294	19.4280059628663	1620.32897770945	2	1	0	0	1	0	0
146.208426629841	2.51870492237805	punish_vlpfc	148.727131552219	26	4	5	10	0	0	0	0	250	250	250	750	2000	0	BLOCKED	0.25	1	1	-1	upset	At this moment	5	3	11	227	VLPFC	423.866459727287	0.374531835205993	n/a	n/a	n/a	n/a	1201.28343313373	0	988.012601914988	0.23419629202984	-6.09562093686485e-05	22.9929518125345	1138.03996925442	2	2	0	0	1	0	0
149.711479235411	2.51870139610767	punish_vlpfc	152.230180631518	27	4	5	10	0	0	0	0	250	250	250	750	2000	0	BLOCKED	0.25	-1	7	-1	scared	At this moment	1	3	11	227	VLPFC	824.445738911629	0.611735330836454	n/a	n/a	n/a	n/a	1768.79421221865	0.230591852421214	1150.69553654349	0.494612793141921	-4.29123865352663e-05	27.2825370070959	1571.54145854146	2	3	0	0	1	0	0
153.230916895866	2.51868235486748	punish_vlpfc	155.749599250734	28	4	5	10	0	0	0	0	250	250	250	750	2000	0	BLOCKED	0.25	1	1	-1	proud	At this moment	3	3	11	227	VLPFC	306.571582317352	0.508114856429463	n/a	n/a	n/a	n/a	1849.07868020305	0.285165257494235	n/a	n/a	n/a	n/a	1748.84086021505	2	4	0	0	1	0	0
156.733658493161	2.51870844852922	punish_vlpfc	159.25236694169	29	4	5	10	0	0	0	0	250	250	250	750	2000	0	BLOCKED	0.25	1	7	1	active	At this moment	3	3	11	227	VLPFC	339.925978660583	0.146067415730337	14782.3227625298	-12.1933875258224	0.00276651453390367	39.2991897710332	1523.55994152047	0.277478862413528	n/a	n/a	n/a	n/a	1736.23617021277	2	5	0	0	1	0	0
160.236648685515	2.51869610691071	punish_vlpfc	162.755344792426	30	4	5	10	0	0	0	0	250	250	250	750	2000	0	BLOCKED	0.25	1	2	-1	jittery	At this moment	5	3	11	227	VLPFC	439.720826029778	0.455680399500624	n/a	n/a	n/a	n/a	1359.38990825688	0	876.521307778902	0.623696213870832	-8.13859013762052e-05	28.4625263551898	1337.5618754804	1	6	0	0	1	0	0
163.756091635227	2.51875993055106	punish_vlpfc	166.274851565778	31	4	5	10	0	0	0	0	250	250	250	750	2000	0	BLOCKED	0.25	1	3	-1	strong	At this moment	5	3	11	227	VLPFC	539.673998534679	0.329588014981273	n/a	n/a	n/a	n/a	1366.23277467412	0.255188316679477	n/a	n/a	n/a	n/a	1209.59339525284	2	7	0	0	1	0	0
167.258953122318	2.5187754457593	punish_vlpfc	169.777728568077	32	4	5	10	0	0	0	0	250	250	250	750	2000	0	BLOCKED	0.25	1	10	1	upset	At this moment	1	3	11	227	VLPFC	340.776490867138	0.392009987515606	n/a	n/a	n/a	n/a	1591.52156057495	0.262106072252114	n/a	n/a	n/a	n/a	1805.853125	2	8	0	0	1	0	0
170.778386904001	6.00497718924285	panas_none	176.783364093244	33	5	6	10	n/a	n/a	n/a	n/a	n/a	n/a	n/a	n/a	2000	0	BLOCKED	n/a	n/a	+	0	interested	At this moment	3	3	11	227	NONE	n/a	0	1359.67656430283	-0.53410408952497	0.000220168194187149	17.1112383809102	1221.15355805243	0.229823212913144	1096.66880792888	0.464903035926626	-0.000326591253216025	127.312558364283	1202.70558882236	3	1	0	1	0	0	1
177.767499148428	6.00528149765731	panas_none	183.772780646086	34	5	6	10	n/a	n/a	n/a	n/a	n/a	n/a	n/a	n/a	2000	0	BLOCKED	n/a	n/a	+	0	hostile	At this moment	3	3	11	227	NONE	n/a	0.421972534332085	n/a	n/a	n/a	n/a	1462.70842332613	0	1739.64944296067	-0.342443074706444	0.000141784561595892	36.9479612776438	1570.64642582629	4	2	0	1	0	0	1
184.773179808557	6.00489432424305	panas_none	190.7780741328	35	5	6	10	n/a	n/a	n/a	n/a	n/a	n/a	n/a	n/a	2000	0	BLOCKED	n/a	n/a	+	0	jittery	At this moment	2	3	11	227	NONE	n/a	0.50561797752809	n/a	n/a	n/a	n/a	1152.35858585859	0.000768639508070715	1240.08471339754	-0.538753729213332	0.000178377083346793	13.428845960974	929.035384615385	5	3	0	1	0	0	1
191.762197551548	13.9446218499541	panas_none	205.706819401503	36	5	6	10	n/a	n/a	n/a	n/a	n/a	n/a	n/a	n/a	2000	0	BLOCKED	n/a	n/a	+	0	nervous	At this moment	2	3	11	227	NONE	n/a	0	1563.38484835372	-0.327870664431918	0.000172791086289977	11.8628376121543	1645.84769038702	0.303612605687932	n/a	n/a	n/a	n/a	1254.58609271523	7	4	0	1	0	0	1
206.691100792706	2.51869681215285	punish_vlpfc	209.209797604859	37	4	7	10	0	0	0	0	250	250	250	750	2000	0	BLOCKED	0.25	1	3	-1	excited	At this moment	4	3	11	227	VLPFC	556.744540989399	0.419475655430712	n/a	n/a	n/a	n/a	1704.85806451613	0.266717909300538	n/a	n/a	n/a	n/a	1925.27672955975	2	1	0	0	1	0	0
210.193857552588	2.51879907101392	punish_vlpfc	212.712656623602	38	4	7	10	0	0	0	0	250	250	250	750	2000	0	BLOCKED	0.25	1	4	-1	irritable	At this moment	5	3	11	227	VLPFC	424.010680019855	0.374531835205993	n/a	n/a	n/a	n/a	1726.88223552894	0.262874711760184	n/a	n/a	n/a	n/a	1733.59019812304	2	2	0	0	1	0	0
213.696790268242	2.51854906564952	punish_vlpfc	216.215339333892	39	4	7	10	0	0	0	0	250	250	250	750	2000	0	BLOCKED	0.25	-1	8	-1	alert	At this moment	1	3	11	227	VLPFC	440.111525714397	0.548064918851436	n/a	n/a	n/a	n/a	1806.24309392265	0.254419677171407	n/a	n/a	n/a	n/a	1715.77216494845	2	3	0	0	1	0	0
217.20263665843	2.51568193662166	punish_vlpfc	219.718318595052	40	4	7	10	0	0	0	0	250	250	250	750	2000	0	BLOCKED	0.25	-1	4	1	jittery	At this moment	4	3	11	227	VLPFC	588.587620735168	0.379525593008739	n/a	n/a	n/a	n/a	1485.52112676056	0.240584166026134	1197.28719466471	1.04294956449856	-0.000362359958645738	22.103266820623	1785.67712550607	2	4	0	0	1	0	0
220.702386300325	2.51883327496051	punish_vlpfc	223.221219575286	41	4	7	10	0	0	0	0	250	250	250	750	2000	0	BLOCKED	0.25	-1	7	-1	excited	At this moment	5	3	11	227	VLPFC	340.792711317539	0.438202247191011	n/a	n/a	n/a	n/a	1762.41555555556	0.286702536510377	n/a	n/a	n/a	n/a	1650.10021551724	3	5	0	0	1	0	0
224.205221693814	2.51872220051288	punish_vlpfc	226.723943894327	42	4	7	10	0	0	0	0	250	250	250	750	2000	0	BLOCKED	0.25	-1	8	-1	irritable	At this moment	5	3	11	227	VLPFC	289.727772593498	0.385767790262172	n/a	n/a	n/a	n/a	1720.89227642276	0.261337432744043	n/a	n/a	n/a	n/a	1655.68158168574	2	6	0	0	1	0	0
227.708106453598	2.51868059182169	punish_vlpfc	230.226787045419	43	4	7	10	0	0	0	0	250	250	250	750	2000	0	BLOCKED	0.25	-1	8	-1	guilty	At this moment	2	3	11	227	VLPFC	390.226796209812	0.431960049937578	n/a	n/a	n/a	n/a	1974.61318681319	0.262106072252114	n/a	n/a	n/a	n/a	1835.17291666667	2	7	0	0	1	0	0
231.211017307103	2.51863651460408	punish_vlpfc	233.729653821707	44	4	7	10	0	0	0	0	250	250	250	750	2000	0	BLOCKED	0.25	1	7	1	alert	At this moment	1	3	11	227	VLPFC	340.793416500092	0.374531835205993	n/a	n/a	n/a	n/a	1883.1996007984	0.254419677171407	n/a	n/a	n/a	n/a	1999.22474226804	2	8	0	0	1	0	0
234.730579441369	6.00483755290509	panas_none	240.735416994274	45	5	8	10	n/a	n/a	n/a	n/a	n/a	n/a	n/a	n/a	2000	0	BLOCKED	n/a	n/a	+	0	determined	At this moment	3	3	11	227	NONE	n/a	0.153558052434457	2413.69207374507	-1.57202900579661	0.000447546497964249	14.3078837927437	1085.86873156342	0.0399692544196772	646.108099000612	1.67707615034553	-0.00097012556756601	66.650336783278	1247.02161729384	3	1	0	1	0	0	1
241.719482936442	6.00493170166015	panas_none	247.724414638102	46	5	8	10	n/a	n/a	n/a	n/a	n/a	n/a	n/a	n/a	2000	0	BLOCKED	n/a	n/a	+	0	ashamed	At this moment	1	3	11	227	NONE	n/a	0.348314606741573	n/a	n/a	n/a	n/a	1468.98659003831	0.0883935434281322	1064.4368528478	0.47824140516611	-7.99250717921602e-05	22.1977494627642	1383.71247892074	3	2	0	1	0	0	1
248.708394189119	6.00498706245423	panas_none	254.713381251574	47	5	8	10	n/a	n/a	n/a	n/a	n/a	n/a	n/a	n/a	2000	0	BLOCKED	n/a	n/a	+	0	proud	At this moment	1	3	11	227	NONE	n/a	0.0624219725343321	2912.96478511701	-1.59783129819378	0.00041665034856229	15.1711779111429	1410.8362183755	0	1607.88125299071	-0.367606785626714	0.000146355867430983	21.4635809483418	1421.90392006149	2	3	0	1	0	0	1
255.698076615155	7.40557727289197	panas_none	263.103653888047	48	5	8	10	n/a	n/a	n/a	n/a	n/a	n/a	n/a	n/a	2000	0	BLOCKED	n/a	n/a	+	0	jittery	At this moment	1	3	11	227	NONE	n/a	0.436953807740325	n/a	n/a	n/a	n/a	1445.58980044346	0.282859338970023	n/a	n/a	n/a	n/a	1215.05037513398	5	4	0	1	0	0	1
264.090325670004	2.51606875747444	reward_vlpfc	266.606394427478	49	2	9	10	0	0	0	0	250	250	250	750	2000	0	BLOCKED	0.75	1	1	-1	guilty	At this moment	1	3	11	227	VLPFC	753.983338117599	0.374531835205993	n/a	n/a	n/a	n/a	1434.39121756487	0.00922367409684858	888.911440301019	-0.103773716500356	0.000250403029815427	27.5454343970718	1005.87354538402	3	1	1	0	0	0	0
267.590537240207	2.51876874595882	reward_vlpfc	270.109305986166	50	2	9	10	0	0	0	0	250	250	250	750	2000	0	BLOCKED	0.75	1	10	1	irritable	At this moment	1	3	11	227	VLPFC	373.179526507854	0.478152309612984	n/a	n/a	n/a	n/a	1222.11483253589	0.302843966179862	n/a	n/a	n/a	n/a	1313.40573318633	2	2	1	0	0	0	0
271.093401548266	2.51862240988015	reward_vlpfc	273.612023958147	51	2	9	10	0	0	0	0	250	250	250	750	2000	0	BLOCKED	0.75	1	8	1	afraid	At this moment	1	3	11	227	VLPFC	373.408727526665	0.419475655430712	n/a	n/a	n/a	n/a	1254.14408602151	0	615.67336592215	0.844980417519528	-0.000156767009610893	26.9713724698565	1208.76325903151	1	3	1	0	0	0	0
274.596344137251	2.53536854475738	reward_vlpfc	277.131712682009	52	2	9	10	0	0	0	0	250	250	250	750	2000	0	BLOCKED	0.75	1	3	-1	scared	At this moment	5	3	11	227	VLPFC	341.23066163063	0.525593008739076	n/a	n/a	n/a	n/a	935.731578947368	0.312836279784781	n/a	n/a	n/a	n/a	1168.23378076063	2	4	1	0	0	0	0
278.132455293417	2.51873983138802	reward_vlpfc	280.651195124805	53	2	9	10	0	0	0	0	250	250	250	750	2000	0	BLOCKED	0.75	1	7	1	active	At this moment	2	3	11	227	VLPFC	257.755282402039	0.374531835205993	n/a	n/a	n/a	n/a	1460.63672654691	0	1027.85999308431	0.542615762148454	-5.26982284368409e-05	17.0947380969504	1443.14681014604	1	5	1	0	0	0	0
281.635216989875	2.51877932453158	reward_vlpfc	284.153996314406	54	2	9	10	0	0	0	0	250	250	250	750	2000	0	BLOCKED	0.75	1	10	1	determined	At this moment	3	3	11	227	VLPFC	306.280320703983	0.399500624219725	n/a	n/a	n/a	n/a	1253.56756756757	0.254419677171407	n/a	n/a	n/a	n/a	1652.91030927835	2	6	1	0	0	0	0
285.138007600963	2.51890379834174	reward_vlpfc	287.656911399305	55	2	9	10	0	0	0	0	250	250	250	750	2000	0	BLOCKED	0.75	1	6	1	ashamed	At this moment	4	3	11	227	VLPFC	380.840131223202	0	1163.87234884536	-0.0181604928513546	-4.00854018319724e-05	10.9461337467898	946.792759051186	0.631053036126057	n/a	n/a	n/a	n/a	1039.34791666667	2	7	1	0	0	0	0
288.657663178802	2.51880753380055	reward_vlpfc	291.176470712602	56	2	9	10	0	0	0	0	250	250	250	750	2000	0	BLOCKED	0.75	1	7	1	afraid	At this moment	3	3	11	227	VLPFC	324.455259561539	0.112359550561798	8764.14074848591	-7.43389272947949	0.00172930775795338	21.4756328211655	863.43741209564	0.274404304381245	n/a	n/a	n/a	n/a	1203.79343220339	2	8	1	0	0	0	0
292.177155847549	6.00488938754796	panas_none	298.182045235097	57	5	10	10	n/a	n/a	n/a	n/a	n/a	n/a	n/a	n/a	2000	0	BLOCKED	n/a	n/a	+	0	irritable	At this moment	3	3	11	227	NONE	n/a	0	-2759.70187253851	3.18315170568856	-0.000639340986617197	16.0213378309902	1071.76029962547	0.241352805534204	1028.6396348905	-0.19564003856155	-3.75171243712621e-06	36.4816711339238	828.058763931104	3	1	0	1	0	1	1
299.166207089126	6.00487422502044	panas_none	305.171081314147	58	5	10	10	n/a	n/a	n/a	n/a	n/a	n/a	n/a	n/a	2000	0	BLOCKED	n/a	n/a	+	0	jittery	At this moment	3	3	11	227	NONE	n/a	0.421972534332085	n/a	n/a	n/a	n/a	1470.18574514039	0	1284.83711806866	0.331760043491446	-7.69021131754275e-05	14.9848169905476	1500.60876249039	5	2	0	1	0	1	1
306.171855308473	6.00501209831242	panas_none	312.176867406786	59	5	10	10	n/a	n/a	n/a	n/a	n/a	n/a	n/a	n/a	2000	0	BLOCKED	n/a	n/a	+	0	inspired	At this moment	3	3	11	227	NONE	n/a	0.223470661672909	-5399.80537581582	6.01314497968334	-0.00128519594202365	16.7397504334219	1563.33601286174	0	1406.98472498948	0.359172293778201	-0.000262235480686776	12.5121586187779	1485.63028439662	4	3	0	1	0	1	1
313.161063464701	6.33839597338442	panas_none	319.499459438086	60	5	10	10	n/a	n/a	n/a	n/a	n/a	n/a	n/a	n/a	2000	0	BLOCKED	n/a	n/a	+	0	ashamed	At this moment	2	3	11	227	NONE	n/a	0.822721598002497	n/a	n/a	n/a	n/a	984.971830985916	0.757878554957725	n/a	n/a	n/a	n/a	1167.57142857143	7	4	0	1	0	1	1
320.500148451746	2.51873489475247	reward_vlpfc	323.018883346498	61	2	11	10	0	0	0	0	250	250	250	750	2000	0	BLOCKED	0.75	1	7	1	scared	At this moment	2	3	11	227	VLPFC	1124.29397255182	0.374531835205993	n/a	n/a	n/a	n/a	1216.44111776447	0.230591852421214	795.580024900612	0.766932399257584	-0.000151877986205618	12.672033684734	1342.3046953047	3	1	1	0	0	0	0
324.006801629603	2.5150123169422	reward_vlpfc	326.521813946545	62	2	11	10	0	0	0	0	250	250	250	750	2000	0	BLOCKED	0.75	1	7	1	hostile	At this moment	5	3	11	227	VLPFC	452.727810025215	0.374531835205993	n/a	n/a	n/a	n/a	1678.54690618762	0.230591852421214	970.684837501085	0.683045199145446	-9.8821592460608e-05	28.1632065160051	1479.64635364635	2	2	1	0	0	0	0
327.507596075773	2.51708323663473	reward_vlpfc	330.024679312408	63	2	11	10	0	0	0	0	250	250	250	750	2000	0	BLOCKED	0.75	1	10	1	interested	At this moment	4	3	11	227	VLPFC	607.323925971985	0.377028714107366	n/a	n/a	n/a	n/a	1466.25651302605	0.230591852421214	1252.21561477366	0.425997572329147	-3.36341014900966e-05	59.3212831173329	1564.86813186813	3	3	1	0	0	0	0
331.008688835859	2.51874723643067	reward_vlpfc	333.52743607229	64	2	11	10	0	0	0	0	250	250	250	750	2000	0	BLOCKED	0.75	1	8	1	attentive	At this moment	5	3	11	227	VLPFC	390.752548217773	0.374531835205993	n/a	n/a	n/a	n/a	1198.22155688623	0.268255188316679	n/a	n/a	n/a	n/a	1387.63340336134	2	4	1	0	0	0	0
334.528324667156	2.51867389202118	reward_vlpfc	337.046998559177	65	2	11	10	0	0	0	0	250	250	250	750	2000	0	BLOCKED	0.75	1	8	1	alert	At this moment	2	3	11	227	VLPFC	423.017357885838	0.379525593008739	n/a	n/a	n/a	n/a	1128.94969818913	0	815.729159612568	0.893333758957466	-0.000290458496706281	17.1140296416935	1330.50269023828	1	5	1	0	0	0	0
338.031141724467	2.51869928044084	reward_vlpfc	340.549841004908	66	2	11	10	0	0	0	0	250	250	250	750	2000	0	BLOCKED	0.75	1	8	1	enthusiastic	At this moment	3	3	11	227	VLPFC	306.509874343872	0.374531835205993	n/a	n/a	n/a	n/a	1377.48103792415	0	704.890623593949	0.640704798583297	-6.0451586572857e-05	22.5395624035978	1199.01691006918	1	6	1	0	0	0	0
341.53385088104	2.51886959445477	reward_vlpfc	344.052720475495	67	2	11	10	0	0	0	0	250	250	250	750	2000	0	BLOCKED	0.75	1	0	-1	afraid	At this moment	3	3	11	227	VLPFC	373.602314293385	0.416978776529338	n/a	n/a	n/a	n/a	1288.2591006424	0.230591852421214	885.6132673404	0.835332441217669	-0.00029360091638088	38.1215355258303	1298.24375624376	2	7	1	0	0	0	0
345.036843894303	2.51869469642639	reward_vlpfc	347.555538590729	68	2	11	10	0	0	0	0	250	250	250	750	2000	0	BLOCKED	0.75	1	0	-1	active	At this moment	3	3	11	227	VLPFC	356.965490758419	0.464419475655431	n/a	n/a	n/a	n/a	1204.56876456876	0.267486548808609	n/a	n/a	n/a	n/a	1397.70828961175	2	8	1	0	0	0	0
348.556364772439	6.00488515609504	panas_none	354.561249928534	69	5	12	10	n/a	n/a	n/a	n/a	n/a	n/a	n/a	n/a	2000	0	BLOCKED	n/a	n/a	+	0	attentive	At this moment	3	3	11	227	NONE	n/a	0.138576779026217	2916.6195036425	-1.97080111451758	0.000476438766338433	10.5413741964647	897.44347826087	0	485.712750495233	1.27033633623776	-0.000641046073617476	39.2180405330126	1026.41122213682	4	1	0	1	0	1	1
355.562080341637	6.00487916165594	panas_none	361.566959503293	70	5	12	10	n/a	n/a	n/a	n/a	n/a	n/a	n/a	n/a	2000	0	BLOCKED	n/a	n/a	+	0	ashamed	At this moment	1	3	11	227	NONE	n/a	0.215980024968789	2008.10346550695	-1.45050036156407	0.000409624092971348	9.45069070943105	761.574840764331	0.229823212913144	896.119752382277	0.0188173951409677	-0.000124788148378255	33.0501183701737	797.278443113772	3	2	0	1	0	1	1
362.551113247156	6.00491371816395	panas_none	368.55602696532	71	5	12	10	n/a	n/a	n/a	n/a	n/a	n/a	n/a	n/a	2000	0	BLOCKED	n/a	n/a	+	0	scared	At this moment	1	3	11	227	NONE	n/a	0	3195.87559309574	-1.39390614525598	0.000302042429476963	18.2905687172338	1616.98127340824	0	1554.27409768393	-0.0141669541821558	8.34603679649323e-05	14.6309982062145	1614.48501152959	4	3	0	1	0	1	1
369.540073513567	7.63950551807881	panas_none	377.179579031646	72	5	12	10	n/a	n/a	n/a	n/a	n/a	n/a	n/a	n/a	2000	0	BLOCKED	n/a	n/a	+	0	upset	At this moment	3	3	11	227	NONE	n/a	0	968.957782502328	0.472141290695885	-0.000159670890555495	14.1794287263258	1247.62921348315	0.230591852421214	1114.17541651887	0.241232118351055	-3.14914661068356e-05	58.602008843553	1292.72027972028	2	4	0	1	0	1	1
378.164056830525	2.51851380389928	punish_rtpj	380.682570634425	73	3	13	10	750	250	250	250	0	0	0	0	2000	0	BLOCKED	0.25	1	1	-1	nervous	At this moment	4	3	11	227	RTPJ	689.494269609451	0.514357053682896	n/a	n/a	n/a	n/a	1786.41902313625	0.264411990776326	n/a	n/a	n/a	n/a	1694.7816091954	3	1	0	0	1	0	0
381.666618945837	2.5187045696378	punish_rtpj	384.185323515475	74	3	13	10	750	250	250	250	0	0	0	0	2000	0	BLOCKED	0.25	1	2	-1	strong	At this moment	4	3	11	227	RTPJ	439.978236436844	0.425717852684145	n/a	n/a	n/a	n/a	1829.63260869565	0	1288.77973111071	0.564453783039567	-7.55355071244262e-05	49.5992627932242	1703.43274404304	1	2	0	0	1	0	0
385.191788748503	2.51297630625965	punish_rtpj	387.704765054762	75	3	13	10	750	250	250	250	0	0	0	0	2000	0	BLOCKED	0.25	-1	9	-1	guilty	At this moment	4	3	11	227	RTPJ	451.167832314968	0.47565543071161	n/a	n/a	n/a	n/a	1792.68571428571	0	1375.52399511107	0.449173754763109	-8.28838716906023e-05	34.9148533137129	1685.79400461184	1	3	0	0	1	0	0
388.689052440464	2.51863721984625	punish_rtpj	391.207689660311	76	3	13	10	750	250	250	250	0	0	0	0	2000	0	BLOCKED	0.25	-1	0	1	alert	At this moment	2	3	11	227	RTPJ	406.433426976204	0.419475655430712	n/a	n/a	n/a	n/a	1608.26451612903	0.261337432744043	n/a	n/a	n/a	n/a	1714.30176899063	2	4	0	0	1	0	0
392.208528536201	2.51874864679576	punish_rtpj	394.727277182996	77	3	13	10	750	250	250	250	0	0	0	0	2000	0	BLOCKED	0.25	-1	0	1	jittery	At this moment	5	3	11	227	RTPJ	372.875923216343	0.471910112359551	n/a	n/a	n/a	n/a	1370.21749408983	0.263643351268255	n/a	n/a	n/a	n/a	1504.88100208768	2	5	0	0	1	0	0
395.711281769872	2.5187860242724	punish_rtpj	398.230067794144	78	3	13	10	750	250	250	250	0	0	0	0	2000	0	BLOCKED	0.25	-1	8	-1	inspired	At this moment	1	3	11	227	RTPJ	389.59913790226	0.410736579275905	n/a	n/a	n/a	n/a	1206.4406779661	0.275941583397387	n/a	n/a	n/a	n/a	1243.70382165605	2	6	0	0	1	0	0
399.231447937131	2.51812980389593	punish_rtpj	401.749577741027	79	3	13	10	750	250	250	250	0	0	0	0	2000	0	BLOCKED	0.25	-1	9	-1	afraid	At this moment	4	3	11	227	RTPJ	306.242238044739	0.393258426966292	n/a	n/a	n/a	n/a	1638.24074074074	0.225211375864719	621.318498044639	1.61804193315643	-0.000571321074528767	17.9214943806513	1616.06646825397	2	7	0	0	1	0	0
402.733747000098	2.5187095062733	punish_rtpj	405.252456506372	80	3	13	10	750	250	250	250	0	0	0	0	2000	0	BLOCKED	0.25	-1	8	-1	determined	At this moment	1	3	11	227	RTPJ	323.082521557808	0.401997503121099	n/a	n/a	n/a	n/a	1755.5114822547	0.230591852421214	1073.4276657832	0.779452610282648	-0.000187128591028962	40.0880947963654	1575.62637362637	2	8	0	0	1	0	0
406.253271756947	6.00505652803184	panas_none	412.258328284979	81	5	14	10	n/a	n/a	n/a	n/a	n/a	n/a	n/a	n/a	2000	0	BLOCKED	n/a	n/a	+	0	strong	At this moment	3	3	11	227	NONE	n/a	0	-1137.33697678598	1.85156975979132	-0.000329894853329902	11.8915020965191	1278.05118601748	0.101460415065334	152.277089282742	2.35484831955599	-0.00119348321905767	55.0146639009237	1171.79469632164	3	1	0	1	0	0	0
413.242284563303	6.00499340957407	panas_none	419.247277972877	82	5	14	10	n/a	n/a	n/a	n/a	n/a	n/a	n/a	n/a	2000	0	BLOCKED	n/a	n/a	+	0	irritable	At this moment	2	3	11	227	NONE	n/a	0	-909.010385938731	1.26424743413111	-0.000159925804555876	15.5495428121525	1035.44194756554	0.260568793235972	n/a	n/a	n/a	n/a	882.454261954262	4	2	0	1	0	0	0
420.231426780105	6.00481286960837	panas_none	426.236239649713	83	5	14	10	n/a	n/a	n/a	n/a	n/a	n/a	n/a	n/a	2000	0	BLOCKED	n/a	n/a	+	0	attentive	At this moment	3	3	11	227	NONE	n/a	0.478152309612984	n/a	n/a	n/a	n/a	1336.05741626794	0.0122982321291314	1497.16217976043	-0.0934812147576186	-4.19463462393221e-05	69.1497922230929	1381.08326848249	5	3	0	1	0	0	0
427.220458980381	10.4249881344438	panas_none	437.645447114825	84	5	14	10	n/a	n/a	n/a	n/a	n/a	n/a	n/a	n/a	2000	0	BLOCKED	n/a	n/a	+	0	inspired	At this moment	3	3	11	227	NONE	n/a	0.240948813982522	-4391.7115003803	5.34786249590666	-0.00113655291246889	14.4592324843412	1816.42434210526	0.491160645657187	n/a	n/a	n/a	n/a	1711.26888217523	9	4	0	1	0	0	0
438.646277527869	2.51872537416222	reward_rtpj	441.165002902031	85	1	15	10	750	250	250	250	0	0	0	0	2000	0	BLOCKED	0.75	1	7	1	ashamed	At this moment	2	3	11	227	RTPJ	656.914572894573	0.444444444444444	n/a	n/a	n/a	n/a	1595.92584269663	0.230591852421214	1288.32376201669	1.32159779344229	-0.000460322459009092	20.2734694062287	2056.74225774226	2	1	1	0	0	0	0
442.149056855202	2.51871832174066	reward_rtpj	444.667775176942	86	1	15	10	750	250	250	250	0	0	0	0	2000	0	BLOCKED	0.75	1	6	1	jittery	At this moment	1	3	11	227	RTPJ	389.887226045132	0.428214731585518	n/a	n/a	n/a	n/a	1498.05458515284	0.242890084550346	735.843121153537	1.60995792318687	-0.000633163867642841	21.3796114400044	1644.49543147208	2	2	1	0	0	0	0
445.651898948371	2.51875005728004	reward_rtpj	448.170649005651	87	1	15	10	750	250	250	250	0	0	0	0	2000	0	BLOCKED	0.75	1	1	-1	alert	At this moment	2	3	11	227	RTPJ	356.707727730274	0.624219725343321	n/a	n/a	n/a	n/a	1757.94019933555	0.289008455034589	n/a	n/a	n/a	n/a	1448.16432432432	2	3	1	0	0	0	0
449.174252398968	2.516004581213	reward_rtpj	451.690256980181	88	1	15	10	750	250	250	250	0	0	0	0	2000	0	BLOCKED	0.75	1	4	-1	excited	At this moment	2	3	11	227	RTPJ	320.388527572155	0.397003745318352	n/a	n/a	n/a	n/a	1576.93581780538	0.332052267486549	n/a	n/a	n/a	n/a	1435.94476409666	2	4	1	0	0	0	0
452.691121597111	2.51856704908607	reward_rtpj	455.209688646197	89	1	15	10	750	250	250	250	0	0	0	0	2000	0	BLOCKED	0.75	-1	1	1	guilty	At this moment	5	3	11	227	RTPJ	339.472513198853	0.454431960049938	n/a	n/a	n/a	n/a	1527.60869565217	0.265180630284397	n/a	n/a	n/a	n/a	1566.30543933054	2	5	1	0	0	0	0
456.193917144835	2.51874723631147	reward_rtpj	458.712664381146	90	1	15	10	750	250	250	250	0	0	0	0	2000	0	BLOCKED	0.75	-1	3	1	active	At this moment	3	3	11	227	RTPJ	340.107928991318	0.374531835205993	n/a	n/a	n/a	n/a	1270.31936127745	0.283627978478094	n/a	n/a	n/a	n/a	1145.3991416309	2	6	1	0	0	0	0
459.696734202206	2.51874688369037	reward_rtpj	462.215481085896	91	1	15	10	750	250	250	250	0	0	0	0	2000	0	BLOCKED	0.75	-1	3	1	attentive	At this moment	2	3	11	227	RTPJ	339.927036464214	0.347066167290886	n/a	n/a	n/a	n/a	1340.44550669216	0.220599538816295	838.472304671754	1.53022675916722	-0.000541315366453081	15.2233883960259	1765.71104536489	2	7	1	0	0	0	0
463.199530102551	2.51870210134985	reward_rtpj	465.718232203901	92	1	15	10	750	250	250	250	0	0	0	0	2000	0	BLOCKED	0.75	-1	2	1	alert	At this moment	3	3	11	227	RTPJ	306.373058915138	0.488139825218477	n/a	n/a	n/a	n/a	1295.95609756098	0.310530361260569	n/a	n/a	n/a	n/a	1513.82608695652	2	8	1	0	0	0	0
466.718992093563	6.00502056109906	panas_none	472.724012654662	93	5	16	10	n/a	n/a	n/a	n/a	n/a	n/a	n/a	n/a	2000	0	BLOCKED	n/a	n/a	+	0	interested	At this moment	3	3	11	227	NONE	n/a	0.433208489388265	n/a	n/a	n/a	n/a	988.933920704846	0.132205995388163	884.299410417506	0.648609386606132	-0.000470977180505145	35.7935509690197	1010.81665190434	4	1	0	1	0	1	0
473.70810398531	6.00479241788389	panas_none	479.712896403193	94	5	16	10	n/a	n/a	n/a	n/a	n/a	n/a	n/a	n/a	2000	0	BLOCKED	n/a	n/a	+	0	inspired	At this moment	3	3	11	227	NONE	n/a	0.619225967540574	n/a	n/a	n/a	n/a	827.950819672131	0	906.74307000175	0.0946599064632882	-0.000129049056984906	12.2033739474858	868.076095311299	2	2	0	1	0	1	0
480.697501496792	6.00452442896363	panas_none	486.702025925755	95	5	16	10	n/a	n/a	n/a	n/a	n/a	n/a	n/a	n/a	2000	0	BLOCKED	n/a	n/a	+	0	jittery	At this moment	2	3	11	227	NONE	n/a	0	1137.07471093016	-0.463344182343472	0.000185697844692358	10.212054290496	992.611735330836	0.219062259800154	652.629902475293	0.779672579002368	-0.0004210498704913	19.8461951220572	975.947834645669	6	3	0	1	0	1	0
487.702753022075	9.8080924195051	panas_none	497.51084544158	96	5	16	10	n/a	n/a	n/a	n/a	n/a	n/a	n/a	n/a	2000	0	BLOCKED	n/a	n/a	+	0	nervous	At this moment	1	3	11	227	NONE	n/a	0.374531835205993	n/a	n/a	n/a	n/a	1604.64870259481	0.230591852421214	683.699711679084	0.447341189654882	3.16032365780718e-05	34.5038520295714	1099.49050949051	5	4	0	1	0	1	0
