onset	duration	trial_type	offset	trial	block	blockCntr	frequency	amplitude_1	amplitude_2	amplitude_3	amplitude_4	amplitude_5	amplitude_6	amplitude_7	amplitude_8	transition	sham	mode	rewardFraction	guess	outcome	correct	word	when	answer	runNr	scanNr	subjectNr	target	reactionTime	outcomeEyeClosed	outcomePupilArea	outcomeDilation	guessEyeClosed	guessPupilArea	guessDilation	nrBlinks	trialInBlock	isReward	isPanas	isPunish	beforePanasReward	beforePanasVLPFC
20.4465725272894	2.50958413052559	reward_rtpj	22.956156657815	1	1	1	10	750	250	250	250	0	0	0	0	2000	0	BLOCKED	0.75	1	6	1	n/a	n/a	n/a	2	6	227	RTPJ	765.692691504955	0.742821473158552	1875.37378640777	1.18536585365854	0	2640.67409684858	0.585384615384615	3	1	1	0	0	0	0
23.957013869822	2.51868870192766	reward_rtpj	26.4757025717497	2	1	1	10	750	250	250	250	0	0	0	0	2000	0	BLOCKED	0.75	1	7	1	n/a	n/a	n/a	2	6	227	RTPJ	307.067009210587	0.374531835205993	2339.43512974052	-0.731462925851703	0	2444.58186010761	0.331538461538462	1	2	1	0	0	0	0
27.4598859354258	2.51872713714838	reward_rtpj	29.9786130725741	3	1	1	10	750	250	250	250	0	0	0	0	2000	0	BLOCKED	0.75	1	8	1	n/a	n/a	n/a	2	6	227	RTPJ	673.48475176096	0.374531835205993	1773.36526946108	0.719438877755511	0	2001.30284396618	0.412307692307692	2	3	1	0	0	0	0
30.9841816005707	2.51389981019497	reward_rtpj	33.4980814107656	4	1	1	10	750	250	250	250	0	0	0	0	2000	0	BLOCKED	0.75	1	0	-1	n/a	n/a	n/a	2	6	227	RTPJ	470.596677362919	0.374531835205993	1996.01596806387	0.0380761523046092	0	1680.70407378939	0.524615384615385	2	4	1	0	0	0	0
34.4988067439795	2.51884244298935	reward_rtpj	37.0176491869688	5	1	1	10	750	250	250	250	0	0	0	0	2000	0	BLOCKED	0.75	1	6	1	n/a	n/a	n/a	2	6	227	RTPJ	457.134817481041	0.374531835205993	1745.40518962076	1.2685370741483	0	2005.27824750192	0.407692307692308	1	5	1	0	0	0	0
38.0017771897316	2.51874864679575	reward_rtpj	40.5205258365273	6	1	1	10	750	250	250	250	0	0	0	0	2000	0	BLOCKED	0.75	1	4	-1	n/a	n/a	n/a	2	6	227	RTPJ	706.598310709	0.697877652933833	1968.42975206612	0.929460580912863	0	1941.25441967717	0.373846153846154	2	6	1	0	0	0	0
41.5046178724766	2.51867107105255	reward_rtpj	44.0232889435291	7	1	1	10	750	250	250	250	0	0	0	0	2000	0	BLOCKED	0.75	1	9	1	n/a	n/a	n/a	2	6	227	RTPJ	957.098850488663	0.374531835205993	1676.13173652695	0.891783567134269	0	2131.26441199078	0.283076923076923	1	7	1	0	0	0	0
45.0073245606422	2.518741594553	reward_rtpj	47.5260661551952	8	1	1	10	750	250	250	250	0	0	0	0	2000	0	BLOCKED	0.75	1	6	1	n/a	n/a	n/a	2	6	227	RTPJ	673.500266909599	0.388264669163546	1825.75102040816	1.57786885245902	0	1766.63105303613	0.47	2	8	1	0	0	0	0
48.5349267156124	6.01359303343295	panas_none	54.5485197490454	9	5	2	n/a	n/a	n/a	n/a	n/a	n/a	n/a	n/a	n/a	n/a	n/a	n/a	n/a	n/a	n/a	n/a	scared	At this moment	2	2	6	227	NONE	n/a	0	1396.71410736579	0.60375	0.230591852421214	1435.62137862138	-0.137137137137137	3	1	0	1	0	1	0
55.5492609499693	6.02162071245908	panas_none	61.5708816624284	10	5	2	n/a	n/a	n/a	n/a	n/a	n/a	n/a	n/a	n/a	n/a	n/a	n/a	n/a	n/a	n/a	n/a	inspired	At this moment	3	2	6	227	NONE	n/a	0.0611735330836454	1704.23936170213	-0.11185086551265	0	2079.62797847809	-0.0946153846153846	2	2	0	1	0	1	0
62.5717392269969	6.02155195212364	panas_none	68.5932911791205	11	5	2	n/a	n/a	n/a	n/a	n/a	n/a	n/a	n/a	n/a	n/a	n/a	n/a	n/a	n/a	n/a	n/a	jittery	At this moment	3	2	6	227	NONE	n/a	0	1660.6304619226	0.37875	0.0691775557263643	1318.08422791082	0.00826446280991736	4	3	0	1	0	1	0
69.5941018456221	12.5936480275989	panas_none	82.1877498732209	12	5	2	n/a	n/a	n/a	n/a	n/a	n/a	n/a	n/a	n/a	n/a	n/a	n/a	n/a	n/a	n/a	n/a	n/a	n/a	n/a	2	6	227	NONE	n/a	0.716604244694132	2154.11894273128	3.18666666666667	0	1689.91621829362	0.306153846153846	9	4	0	1	0	1	0
83.188948418498	2.5182856606245	reward_vlpfc	85.7072340791225	13	2	3	10	0	0	0	0	250	250	250	750	2000	0	BLOCKED	0.75	1	4	-1	n/a	n/a	n/a	2	6	227	VLPFC	689.57078742981	0	2263.86641697878	0.31375	0.230591852421214	1695.70929070929	0.82982982982983	2	1	1	0	0	0	0
86.708186850369	2.51854906553031	reward_vlpfc	89.2267359158993	14	2	3	10	0	0	0	0	250	250	250	750	2000	0	BLOCKED	0.75	1	6	1	n/a	n/a	n/a	2	6	227	VLPFC	306.070513486862	0.430711610486891	2215.1600877193	1.54625550660793	0.0607225211375865	2056.37397708674	0.635544635544636	2	2	1	0	0	0	0
90.2107828168273	2.518786729455	reward_vlpfc	92.7295695462823	15	2	3	10	0	0	0	0	250	250	250	750	2000	0	BLOCKED	0.75	1	7	1	n/a	n/a	n/a	2	6	227	VLPFC	473.240952312946	0.374531835205993	1858.3253493014	1.64929859719439	0	2033.59338970023	0.372307692307692	1	3	1	0	0	0	0
93.7138809099793	2.51853778183461	reward_vlpfc	96.2324186918139	16	2	3	10	0	0	0	0	250	250	250	750	2000	0	BLOCKED	0.75	1	2	-1	n/a	n/a	n/a	2	6	227	VLPFC	373.576220571995	0.478152309612984	1888.18181818182	2.08653846153846	0	1850.98847040738	0.525384615384615	1	4	1	0	0	0	0
97.2166842152476	2.51858679556847	reward_vlpfc	99.7352710108161	17	2	3	10	0	0	0	0	250	250	250	750	2000	0	BLOCKED	0.75	1	10	1	n/a	n/a	n/a	2	6	227	VLPFC	306.227075457573	0.468164794007491	1695.02582159624	2.20470588235294	0.232129131437356	1904.02502502503	0.921765295887663	2	5	1	0	0	0	0
100.719337658226	2.53549971830844	reward_vlpfc	103.254837376535	18	2	3	10	0	0	0	0	250	250	250	750	2000	0	BLOCKED	0.75	1	8	1	n/a	n/a	n/a	2	6	227	VLPFC	389.588912129402	0.411985018726592	1453.02760084926	1.44893617021277	0	1890.18754803997	0.431538461538462	2	6	1	0	0	0	0
104.255584571958	2.53545987260343	reward_vlpfc	106.791044444561	19	2	3	10	0	0	0	0	250	250	250	750	2000	0	BLOCKED	0.75	1	7	1	n/a	n/a	n/a	2	6	227	VLPFC	373.380165636539	0.424469413233458	1310.32754880694	1.64270152505447	0.253651037663336	1549.4376930999	0.681114551083591	2	7	1	0	0	0	0
107.791904124856	2.51864850354195	reward_vlpfc	110.310552628398	20	2	3	10	0	0	0	0	250	250	250	750	2000	0	BLOCKED	0.75	1	6	1	n/a	n/a	n/a	2	6	227	VLPFC	439.829432010651	0.511860174781523	1452.68797953964	2.1	0.235203689469639	1460.2	0.957703927492447	2	8	1	0	0	0	0
111.311366115868	6.02180830472707	panas_none	117.333174420595	21	5	4	n/a	n/a	n/a	n/a	n/a	n/a	n/a	n/a	n/a	n/a	n/a	n/a	n/a	n/a	n/a	n/a	distressed	At this moment	3	2	6	227	NONE	n/a	0.474406991260924	1334.28503562945	1.0763723150358	0.232129131437356	1345.95195195195	0.172517552657974	6	1	0	1	0	1	1
118.317099668622	6.02150963801145	panas_none	124.338609306633	22	5	4	n/a	n/a	n/a	n/a	n/a	n/a	n/a	n/a	n/a	n/a	n/a	n/a	n/a	n/a	n/a	n/a	ashamed	At this moment	1	2	6	227	NONE	n/a	0.283395755305868	1535.63588850174	0.445026178010471	0	1303.2475019216	-0.0669230769230769	6	2	0	1	0	1	1
125.322720383883	6.02164504295588	panas_none	131.344365426838	23	5	4	n/a	n/a	n/a	n/a	n/a	n/a	n/a	n/a	n/a	n/a	n/a	n/a	n/a	n/a	n/a	n/a	alert	At this moment	3	2	6	227	NONE	n/a	0	1974.5418227216	-0.08625	0.230591852421214	1876.08091908092	0.203203203203203	4	3	0	1	0	1	1
132.328425727189	8.64048685127497	panas_none	140.968912578464	24	5	4	n/a	n/a	n/a	n/a	n/a	n/a	n/a	n/a	n/a	n/a	n/a	n/a	n/a	n/a	n/a	n/a	n/a	n/a	n/a	2	6	227	NONE	n/a	0.514357053682896	1828.08997429306	1.48320413436693	0.518831667947732	1462.31469648562	1.51364365971108	7	4	0	1	0	1	1
141.969633327603	2.51870421713591	punish_vlpfc	144.488337544739	25	4	5	10	0	0	0	0	250	250	250	750	2000	0	BLOCKED	0.25	1	2	-1	n/a	n/a	n/a	2	6	227	VLPFC	390.945429742336	0.755305867665418	2077.34693877551	2.42268041237113	0	2151.31821675634	0.422307692307692	3	1	0	0	1	0	0
145.472479299605	2.53534703505039	punish_vlpfc	148.007826334655	26	4	5	10	0	0	0	0	250	250	250	750	2000	0	BLOCKED	0.25	1	2	-1	n/a	n/a	n/a	2	6	227	VLPFC	306.107890963554	0.558052434456929	2248.89265536723	1.75852272727273	0.0253651037663336	2108.6427444795	0.497237569060773	2	2	0	0	1	0	0
149.008562951624	2.5191777817607	punish_vlpfc	151.527740733385	27	4	5	10	0	0	0	0	250	250	250	750	2000	0	BLOCKED	0.25	-1	2	1	n/a	n/a	n/a	2	6	227	VLPFC	357.650625646114	0.521847690387016	2132.78328981723	1.0997375328084	0	2001.98847040738	0.385384615384615	3	3	0	0	1	0	0
152.511575358808	2.51866119784117	punish_vlpfc	155.030236556649	28	4	5	10	0	0	0	0	250	250	250	750	2000	0	BLOCKED	0.25	-1	7	-1	n/a	n/a	n/a	2	6	227	VLPFC	439.807922482491	0.436953807740325	2050.46784922395	1.30289532293987	0.240584166026134	1819.9544534413	0.939148073022312	2	4	0	0	1	0	0
156.014382542908	2.5187690986395	punish_vlpfc	158.533151641548	29	4	5	10	0	0	0	0	250	250	250	750	2000	0	BLOCKED	0.25	-1	9	-1	n/a	n/a	n/a	2	6	227	VLPFC	356.850890219212	0.440699126092385	2099.83258928571	2.00224215246637	0.237509607993851	1909.15423387097	0.827272727272727	2	5	0	0	1	0	0
159.533833602846	2.51872396361827	punish_vlpfc	162.052557566464	30	4	5	10	0	0	0	0	250	250	250	750	2000	0	BLOCKED	0.25	1	4	-1	n/a	n/a	n/a	2	6	227	VLPFC	573.680031061172	0.636704119850187	2115.65979381443	2.22145328719723	0	2041.97079169869	0.32	2	6	0	0	1	0	0
163.03691335988	2.51869363856315	punish_vlpfc	165.555606998444	31	4	5	10	0	0	0	0	250	250	250	750	2000	0	BLOCKED	0.25	1	6	1	n/a	n/a	n/a	2	6	227	VLPFC	756.784880280495	0.399500624219725	1817.23908523909	2.00208768267223	0	2035.3428132206	0.397692307692308	2	7	0	0	1	0	0
166.539577381432	2.51878884518146	punish_vlpfc	169.058366226614	32	4	5	10	0	0	0	0	250	250	250	750	2000	0	BLOCKED	0.25	-1	8	-1	n/a	n/a	n/a	2	6	227	VLPFC	1474.20289158821	0.404494382022472	2518.91194968553	0.12	0.230591852421214	2315.91608391608	0.570570570570571	2	8	0	0	1	0	0
170.059016099751	6.02167289978266	panas_none	176.080688999534	33	5	6	n/a	n/a	n/a	n/a	n/a	n/a	n/a	n/a	n/a	n/a	n/a	n/a	n/a	n/a	n/a	n/a	attentive	At this moment	3	2	6	227	NONE	n/a	0.0287141073657928	1607.0706940874	0.202059202059202	0.541122213681783	2057.42546063652	0.393939393939394	4	1	0	1	0	0	1
177.08149825561	6.02152726888659	panas_none	183.103025524497	34	5	6	n/a	n/a	n/a	n/a	n/a	n/a	n/a	n/a	n/a	n/a	n/a	n/a	n/a	n/a	n/a	n/a	ashamed	At this moment	1	2	6	227	NONE	n/a	0	1893.11360799001	0.39125	0.112221368178324	2135.3341991342	0.072790294627383	5	2	0	1	0	0	1
184.103944444418	6.02152973729372	panas_none	190.125474181712	35	5	6	n/a	n/a	n/a	n/a	n/a	n/a	n/a	n/a	n/a	n/a	n/a	n/a	n/a	n/a	n/a	n/a	jittery	At this moment	3	2	6	227	NONE	n/a	0.158551810237203	1598.73442136499	-0.00594353640416048	0.230591852421214	1435.4015984016	0.288288288288288	5	3	0	1	0	0	1
191.112627285957	7.26952634358406	panas_none	198.382153629541	36	5	6	n/a	n/a	n/a	n/a	n/a	n/a	n/a	n/a	n/a	n/a	n/a	n/a	n/a	n/a	n/a	n/a	n/a	n/a	n/a	2	6	227	NONE	n/a	0.568039950062422	1622.78612716763	2.16279069767442	0.671022290545734	1324.1261682243	1.85647058823529	7	4	0	1	0	0	1
199.382992858052	2.51872220063208	punish_vlpfc	201.901715058684	37	4	7	10	0	0	0	0	250	250	250	750	2000	0	BLOCKED	0.25	1	2	-1	n/a	n/a	n/a	2	6	227	VLPFC	1471.98739886284	0	2197.51685393258	0.345	0.230591852421214	1771.98101898102	0.566566566566567	1	1	0	0	1	0	0
202.885810620666	2.51878955042363	punish_vlpfc	205.404600171089	38	4	7	10	0	0	0	0	250	250	250	750	2000	0	BLOCKED	0.25	1	3	-1	n/a	n/a	n/a	2	6	227	VLPFC	408.152434945107	0.33458177278402	2370.27767354597	0.362781954887218	0.230591852421214	2302.53446553447	0.479479479479479	2	2	0	0	1	0	0
206.405412600636	2.51862205737828	punish_vlpfc	208.924034658015	39	4	7	10	0	0	0	0	250	250	250	750	2000	0	BLOCKED	0.25	1	6	1	n/a	n/a	n/a	2	6	227	VLPFC	391.181683123112	0.347066167290886	1756.65391969407	1.57088122605364	0	2109.0284396618	0.408461538461538	1	3	0	0	1	0	0
209.90823036325	2.51867494988443	punish_vlpfc	212.426905313134	40	4	7	10	0	0	0	0	250	250	250	750	2000	0	BLOCKED	0.25	1	4	-1	n/a	n/a	n/a	2	6	227	VLPFC	357.301887452602	0.614232209737828	2268.00647249191	2.26298701298701	0.0238278247501922	1873.32913385827	0.459416863672183	2	4	0	0	1	0	0
213.427748773098	2.5187641619444	punish_vlpfc	215.946512935042	41	4	7	10	0	0	0	0	250	250	250	750	2000	0	BLOCKED	0.25	-1	6	-1	n/a	n/a	n/a	2	6	227	VLPFC	373.075504422188	0.655430711610487	2235.36956521739	2.64963503649635	0.268255188316679	1911.31827731092	0.816842105263158	3	5	0	0	1	0	0
216.947122257233	2.51893870741128	punish_vlpfc	219.466060964644	42	4	7	10	0	0	0	0	250	250	250	750	2000	0	BLOCKED	0.25	-1	7	-1	n/a	n/a	n/a	2	6	227	VLPFC	373.337498903275	0.538077403245943	2044.06216216216	2.1195652173913	0.230591852421214	2025.12987012987	0.631631631631632	2	6	0	0	1	0	0
220.466755620122	2.51873101603985	punish_vlpfc	222.985486636162	43	4	7	10	0	0	0	0	250	250	250	750	2000	0	BLOCKED	0.25	1	7	1	n/a	n/a	n/a	2	6	227	VLPFC	406.65275478363	0.374531835205993	1832.78842315369	1.57715430861723	0.255956956187548	1905.92561983471	0.883022774327122	2	7	0	0	1	0	0
223.969630506694	2.51881987547873	punish_vlpfc	226.488450382173	44	4	7	10	0	0	0	0	250	250	250	750	2000	0	BLOCKED	0.25	1	4	-1	n/a	n/a	n/a	2	6	227	VLPFC	423.254316568375	0.424469413233458	1702.08242950108	1.87145969498911	0.27978478093774	1746.22732123799	0.871657754010695	2	8	0	0	1	0	0
227.489076277435	6.0217250870466	panas_none	233.510801364481	45	5	8	n/a	n/a	n/a	n/a	n/a	n/a	n/a	n/a	n/a	n/a	n/a	n/a	n/a	n/a	n/a	n/a	inspired	At this moment	3	2	6	227	NONE	n/a	0	1470.18851435705	0.25875	0.200614911606457	1418.8875	0.611753371868979	4	1	0	1	0	0	1
234.511652934551	6.02143312025069	panas_none	240.533086054802	46	5	8	n/a	n/a	n/a	n/a	n/a	n/a	n/a	n/a	n/a	n/a	n/a	n/a	n/a	n/a	n/a	n/a	distressed	At this moment	3	2	6	227	NONE	n/a	0.259675405742821	1357.95278246206	0.273648648648649	0.252113758647194	1464.54162384378	0.37384140061792	5	2	0	1	0	0	1
241.533811035335	6.0217416600585	panas_none	247.555552695394	47	5	8	n/a	n/a	n/a	n/a	n/a	n/a	n/a	n/a	n/a	n/a	n/a	n/a	n/a	n/a	n/a	n/a	irritable	At this moment	2	2	6	227	NONE	n/a	0	1631.822721598	0.705	0.0799385088393543	1517.81620718463	0.0117056856187291	4	3	0	1	0	0	1
248.556281554818	5.02079876214265	panas_none	253.577080316961	48	5	8	n/a	n/a	n/a	n/a	n/a	n/a	n/a	n/a	n/a	n/a	n/a	n/a	n/a	n/a	n/a	n/a	n/a	n/a	n/a	2	6	227	NONE	n/a	0.0886392009987516	2042.57534246575	-0.11522633744856	0.801691006917756	1902.29457364341	1.13671875	5	4	0	1	0	0	1
254.577930829167	2.51861606287957	reward_rtpj	257.096546892047	49	1	9	10	750	250	250	250	0	0	0	0	2000	0	BLOCKED	0.75	1	6	1	n/a	n/a	n/a	2	6	227	RTPJ	756.506312966347	0.379525593008739	1550.46680080483	1.64242424242424	0	1827.42428900845	0.592307692307692	2	1	1	0	0	0	0
258.080714740574	2.51878672945497	reward_rtpj	260.599501470029	50	1	9	10	750	250	250	250	0	0	0	0	2000	0	BLOCKED	0.75	1	8	1	n/a	n/a	n/a	2	6	227	RTPJ	306.611428022385	0.664169787765293	1275.49442379182	1.64179104477612	0	1562.65180630284	0.543076923076923	2	2	1	0	0	0	0
261.583432359934	2.51870562756062	reward_rtpj	264.102137987494	51	1	9	10	750	250	250	250	0	0	0	0	2000	0	BLOCKED	0.75	1	8	1	n/a	n/a	n/a	2	6	227	RTPJ	506.807624161243	0.374531835205993	1501.86626746507	0.150300601202405	0	1781.32052267487	0.533076923076923	1	3	1	0	0	0	0
265.103121436358	2.53533892488474	reward_rtpj	267.638460361242	52	1	9	10	750	250	250	250	0	0	0	0	2000	0	BLOCKED	0.75	1	1	-1	n/a	n/a	n/a	2	6	227	RTPJ	526.651852011681	0.610486891385768	1448.13782051282	2.29581993569132	0	1505.83013066872	0.398461538461538	2	4	1	0	0	0	0
268.639231887281	2.51877932447195	reward_rtpj	271.158011211753	53	1	9	10	750	250	250	250	0	0	0	0	2000	0	BLOCKED	0.75	1	8	1	n/a	n/a	n/a	2	6	227	RTPJ	323.070179998875	0.626716604244694	1312.02006688963	2.32996632996633	0.338970023059185	1571.65	0.786713286713287	2	5	1	0	0	0	0
272.142047886789	2.51884385341401	reward_rtpj	274.660891740203	54	1	9	10	750	250	250	250	0	0	0	0	2000	0	BLOCKED	0.75	1	9	1	n/a	n/a	n/a	2	6	227	RTPJ	958.741340637207	0.429463171036205	1499.46608315098	1.94945054945055	0	1463.80860876249	0.405384615384615	1	6	1	0	0	0	0
275.644901263714	2.5187489994168	reward_rtpj	278.163650263131	55	1	9	10	750	250	250	250	0	0	0	0	2000	0	BLOCKED	0.75	1	8	1	n/a	n/a	n/a	2	6	227	RTPJ	407.072016358376	0.49812734082397	1269.8184079602	0.88	0.409684857801691	1421.95442708333	0.720626631853786	3	7	1	0	0	0	0
279.164515232682	2.51868517577651	reward_rtpj	281.683200408459	56	1	9	10	750	250	250	250	0	0	0	0	2000	0	BLOCKED	0.75	1	4	-1	n/a	n/a	n/a	2	6	227	RTPJ	357.467970013618	0.535580524344569	1726.73924731183	2.20540540540541	0.265180630284397	1511.27824267782	0.941299790356394	3	8	1	0	0	0	0
282.68403963697	6.02158897691965	panas_none	288.705628613889	57	5	10	n/a	n/a	n/a	n/a	n/a	n/a	n/a	n/a	n/a	n/a	n/a	n/a	n/a	n/a	n/a	n/a	active	At this moment	3	2	6	227	NONE	n/a	0.344569288389513	1196.71428571429	0.314885496183206	0	1342.43658724058	-0.301538461538462	3	1	0	1	0	1	0
289.706407897472	6.02147754991051	panas_none	295.727885447383	58	5	10	n/a	n/a	n/a	n/a	n/a	n/a	n/a	n/a	n/a	n/a	n/a	n/a	n/a	n/a	n/a	n/a	proud	At this moment	2	2	6	227	NONE	n/a	0	1675.2759051186	-0.19625	0.230591852421214	1873.00599400599	0.342342342342342	6	2	0	1	0	1	0
296.733647914708	6.01670523124932	panas_none	302.750353145957	59	5	10	n/a	n/a	n/a	n/a	n/a	n/a	n/a	n/a	n/a	n/a	n/a	n/a	n/a	n/a	n/a	n/a	jittery	At this moment	3	2	6	227	NONE	n/a	0	1581.68789013733	0.04375	0	1259.75787855496	0.452307692307692	4	3	0	1	0	1	0
303.734520994484	7.97309743720297	panas_none	311.707618431687	60	5	10	n/a	n/a	n/a	n/a	n/a	n/a	n/a	n/a	n/a	n/a	n/a	n/a	n/a	n/a	n/a	n/a	n/a	n/a	n/a	2	6	227	NONE	n/a	0.454431960049938	2447.0114416476	1.09655172413793	0.273635664873174	2126.02857142857	0.628844114528102	8	4	0	1	0	1	0
312.691743966162	2.5187719195485	punish_rtpj	315.210515885711	61	3	11	10	750	250	250	250	0	0	0	0	2000	0	BLOCKED	0.25	1	2	-1	n/a	n/a	n/a	2	6	227	RTPJ	523.62957161665	0.868913857677903	1548.00952380952	5.16346153846154	0	1766.42582628747	0.632307692307692	3	1	0	0	1	0	0
316.211318089426	2.5186784760952	punish_rtpj	318.729996565521	62	3	11	10	750	250	250	250	0	0	0	0	2000	0	BLOCKED	0.25	1	4	-1	n/a	n/a	n/a	2	6	227	RTPJ	407.43909072876	0.521847690387016	1900.18015665796	2.38320209973753	0.278247501921599	1634.86794462194	0.914621131270011	2	2	0	0	1	0	0
319.714287477374	2.51857269090414	punish_rtpj	322.232860168278	63	3	11	10	750	250	250	250	0	0	0	0	2000	0	BLOCKED	0.25	-1	6	-1	n/a	n/a	n/a	2	6	227	RTPJ	358.955308616161	0.735330836454432	1798.43867924528	3.02380952380952	0.243658724058417	1601.62195121951	0.868635437881874	3	3	0	0	1	0	0
323.217148964465	2.51850393056867	punish_rtpj	325.735652895033	64	3	11	10	750	250	250	250	0	0	0	0	2000	0	BLOCKED	0.25	-1	1	1	n/a	n/a	n/a	2	6	227	RTPJ	339.291973233223	0.47565543071161	1725.96428571429	0.978468899521531	0.257494235203689	1662.18322981366	0.795643153526971	2	4	0	0	1	0	0
326.719816864789	2.51875111514329	punish_rtpj	329.238567979932	65	3	11	10	750	250	250	250	0	0	0	0	2000	0	BLOCKED	0.25	-1	8	-1	n/a	n/a	n/a	2	6	227	RTPJ	339.954540610313	0.421972534332085	1433.84017278618	1.72017353579176	0.357417371252882	1397.3038277512	0.878896882494005	3	5	0	0	1	0	0
330.239270393014	2.5187606358528	punish_rtpj	332.758031028867	66	3	11	10	750	250	250	250	0	0	0	0	2000	0	BLOCKED	0.25	1	6	1	n/a	n/a	n/a	2	6	227	RTPJ	606.911011457443	0.3458177278402	1586.44847328244	1.37476099426386	0	1908.22290545734	0.473076923076923	1	6	0	0	1	0	0
333.742259527504	2.51866260826591	punish_rtpj	336.26092213577	67	3	11	10	750	250	250	250	0	0	0	0	2000	0	BLOCKED	0.25	1	3	-1	n/a	n/a	n/a	2	6	227	RTPJ	1123.61589002609	0.0986267166042447	1983.46952908587	0.538141470180305	0.277478862413528	2045.85	0.698294243070362	2	7	0	0	1	0	0
337.248763900995	2.51515865296125	punish_rtpj	339.763922553956	68	3	11	10	750	250	250	250	0	0	0	0	2000	0	BLOCKED	0.25	1	2	-1	n/a	n/a	n/a	2	6	227	RTPJ	570.082279682159	0.373283395755306	1804.12948207171	1.48702594810379	0	1936.11837048424	0.242307692307692	1	8	0	0	1	0	0
340.748049146295	6.0214197207689	panas_none	346.769468867063	69	5	12	n/a	n/a	n/a	n/a	n/a	n/a	n/a	n/a	n/a	n/a	n/a	n/a	n/a	n/a	n/a	n/a	hostile	At this moment	3	2	6	227	NONE	n/a	0.434456928838951	1161.43267108168	0.47787610619469	0.192928516525749	1341.95047619048	0.275763358778626	4	1	0	1	0	0	0
347.770326784313	6.02148918622731	panas_none	353.79181597054	70	5	12	n/a	n/a	n/a	n/a	n/a	n/a	n/a	n/a	n/a	n/a	n/a	n/a	n/a	n/a	n/a	n/a	active	At this moment	3	2	6	227	NONE	n/a	0.370786516853933	1314.52380952381	0.854870775347913	0.119139123750961	1373.87783595113	-0.0611353711790393	5	2	0	1	0	0	0
354.798242063105	6.01596403026582	panas_none	360.814206093371	71	5	12	n/a	n/a	n/a	n/a	n/a	n/a	n/a	n/a	n/a	n/a	n/a	n/a	n/a	n/a	n/a	n/a	strong	At this moment	3	2	6	227	NONE	n/a	0.737827715355805	1202.4	2.04306220095694	0.0338201383551115	1225.28957836118	0.089968152866242	4	3	0	1	0	0	0
361.815010060132	7.13916030603644	panas_none	368.954170366168	72	5	12	n/a	n/a	n/a	n/a	n/a	n/a	n/a	n/a	n/a	n/a	n/a	n/a	n/a	n/a	n/a	n/a	n/a	n/a	n/a	2	6	227	NONE	n/a	0	1890.73033707865	-0.18	0.833205226748655	1680.87096774194	0.423255813953488	5	4	0	1	0	0	0
369.938359371722	2.55214218366149	punish_rtpj	372.490501555383	73	3	13	10	750	250	250	250	0	0	0	0	2000	0	BLOCKED	0.25	1	10	1	n/a	n/a	n/a	2	6	227	RTPJ	924.901038050652	0.690387016229713	1506.57258064516	3.02845528455285	0.309761721752498	1795.25055679287	0.9609375	2	1	0	0	1	0	0
373.474586891532	2.51862628871203	punish_rtpj	375.993213180244	74	3	13	10	750	250	250	250	0	0	0	0	2000	0	BLOCKED	0.25	1	4	-1	n/a	n/a	n/a	2	6	227	RTPJ	405.962683200836	0.388264669163546	1819.36326530612	1.52663934426229	0.230591852421214	1425.62537462537	0.500500500500501	2	2	0	0	1	0	0
376.977263254702	2.51873947876692	punish_rtpj	379.496002733469	75	3	13	10	750	250	250	250	0	0	0	0	2000	0	BLOCKED	0.25	1	1	-1	n/a	n/a	n/a	2	6	227	RTPJ	657.207597613335	0.374531835205993	1983.61676646707	-0.474949899799599	0.263643351268255	1955.93215031315	0.871338912133891	2	3	0	0	1	0	0
380.496971019745	2.53529308474066	punish_rtpj	383.032264104486	76	3	13	10	750	250	250	250	0	0	0	0	2000	0	BLOCKED	0.25	1	0	-1	n/a	n/a	n/a	2	6	227	RTPJ	557.813675820827	0.430711610486891	2005.97368421053	1.68942731277533	0	1891.11145272867	0.265384615384615	1	4	0	0	1	0	0
384.016407975078	2.5187377157211	punish_rtpj	386.535145690799	77	3	13	10	750	250	250	250	0	0	0	0	2000	0	BLOCKED	0.25	-1	4	1	n/a	n/a	n/a	2	6	227	RTPJ	306.296541035175	0.403245942571785	1756.14225941423	0.888655462184874	0.242890084550346	1849.53705583756	0.96236012207528	2	5	0	0	1	0	0
387.519173550308	2.51869434380529	punish_rtpj	390.037867894113	78	3	13	10	750	250	250	250	0	0	0	0	2000	0	BLOCKED	0.25	-1	7	-1	n/a	n/a	n/a	2	6	227	RTPJ	356.55786550045	0.636704119850187	1611.4089347079	2.21107266435986	0.321291314373559	1474.39750849377	0.930760499432463	3	6	0	0	1	0	0
391.022082993329	2.51871409034726	punish_rtpj	393.540797083676	79	3	13	10	750	250	250	250	0	0	0	0	2000	0	BLOCKED	0.25	-1	8	-1	n/a	n/a	n/a	2	6	227	RTPJ	407.040986061096	0.806491885143571	1259.03870967742	2.65359477124183	0.405841660261337	1441.65588615783	0.763942931258106	2	7	0	0	1	0	0
394.541648653805	2.51883115923403	punish_rtpj	397.060479813039	80	3	13	10	750	250	250	250	0	0	0	0	2000	0	BLOCKED	0.25	1	4	-1	n/a	n/a	n/a	2	6	227	RTPJ	456.569925010204	0.430711610486891	1524.9298245614	2.26651982378855	0	1149.54419677171	0.0215384615384615	1	8	0	0	1	0	0
398.061194215059	6.02151845353842	panas_none	404.082712668598	81	5	14	n/a	n/a	n/a	n/a	n/a	n/a	n/a	n/a	n/a	n/a	n/a	n/a	n/a	n/a	n/a	n/a	afraid	At this moment	2	2	6	227	NONE	n/a	0	1370.2684144819	-0.06625	0.293620292083013	1392.41784548422	0.711014176663032	5	1	0	1	0	0	0
405.086657747805	6.01844257521628	panas_none	411.105100323021	82	5	14	n/a	n/a	n/a	n/a	n/a	n/a	n/a	n/a	n/a	n/a	n/a	n/a	n/a	n/a	n/a	n/a	upset	At this moment	1	2	6	227	NONE	n/a	0.278401997503121	1151.71972318339	0.41421143847487	0.215987701767871	1028.25588235294	0.460707269155206	3	2	0	1	0	0	0
412.105994559824	6.02149024415019	panas_none	418.127484803975	83	5	14	n/a	n/a	n/a	n/a	n/a	n/a	n/a	n/a	n/a	n/a	n/a	n/a	n/a	n/a	n/a	n/a	guilty	At this moment	1	2	6	227	NONE	n/a	0.471910112359551	1775.94562647754	1.46555819477435	0.212913143735588	1742.50390625	0.133919843597263	4	3	0	1	0	0	0
419.12831909579	6.38882126480337	panas_none	425.517140360594	84	5	14	n/a	n/a	n/a	n/a	n/a	n/a	n/a	n/a	n/a	n/a	n/a	n/a	n/a	n/a	n/a	n/a	n/a	n/a	n/a	2	6	227	NONE	n/a	0.374531835205993	2219.88822355289	0.851703406813627	0	1957.7901614143	0.223846153846154	2	4	0	1	0	0	0
426.517627677321	2.51870598018166	reward_vlpfc	429.036333657503	85	2	15	10	0	0	0	0	250	250	250	750	2000	0	BLOCKED	0.75	1	7	1	n/a	n/a	n/a	2	6	227	VLPFC	907.4771733284	0.460674157303371	1516.08564814815	1.60232558139535	0	1454.48424289008	0.424615384615385	2	1	1	0	0	0	0
430.020445087254	2.51874758899208	reward_vlpfc	432.539192676246	86	2	15	10	0	0	0	0	250	250	250	750	2000	0	BLOCKED	0.75	1	1	-1	n/a	n/a	n/a	2	6	227	VLPFC	640.408217728138	0.433208489388265	1489.73568281938	1.4070796460177	0	1583.91237509608	0.536153846153846	1	2	1	0	0	0	0
433.539918714702	2.51870351189376	reward_vlpfc	436.058622226596	87	2	15	10	0	0	0	0	250	250	250	750	2000	0	BLOCKED	0.75	1	6	1	n/a	n/a	n/a	2	6	227	VLPFC	424.566404521465	0.47940074906367	1476.69304556355	1.80722891566265	0.288239815526518	1435.48056155508	0.978354978354978	3	3	1	0	0	0	0
437.043364135623	2.51819468545909	reward_vlpfc	439.561558821082	88	2	15	10	0	0	0	0	250	250	250	750	2000	0	BLOCKED	0.75	1	2	-1	n/a	n/a	n/a	2	6	227	VLPFC	639.418421626091	0.563046192259675	1299.48571428571	2.0316091954023	0	1251.58186010761	0.291538461538462	1	4	1	0	0	0	0
440.562350798905	2.5187722721696	reward_vlpfc	443.081123071075	89	2	15	10	0	0	0	0	250	250	250	750	2000	0	BLOCKED	0.75	1	10	1	n/a	n/a	n/a	2	6	227	VLPFC	474.127784132957	0.374531835205993	1434.80638722555	0.569138276553106	0.345119139123751	1341.05868544601	0.714117647058824	3	5	1	0	0	0	0
444.081806090236	2.51871973222495	reward_vlpfc	446.600525822461	90	2	15	10	0	0	0	0	250	250	250	750	2000	0	BLOCKED	0.75	1	6	1	n/a	n/a	n/a	2	6	227	VLPFC	359.56956744194	0.378277153558052	1626.29919678715	1.44153225806452	0.230591852421214	2005.91008991009	0.344344344344344	2	6	1	0	0	0	0
447.601388323724	2.51878355592487	reward_vlpfc	450.120171879649	91	2	15	10	0	0	0	0	250	250	250	750	2000	0	BLOCKED	0.75	1	6	1	n/a	n/a	n/a	2	6	227	VLPFC	656.703707933426	0.450686641697878	1482.25227272727	1.58904109589041	0	1858.70945426595	0.170769230769231	1	7	1	0	0	0	0
451.121004408419	2.5186492087841	reward_vlpfc	453.639653617203	92	2	15	10	0	0	0	0	250	250	250	750	2000	0	BLOCKED	0.75	1	6	1	n/a	n/a	n/a	2	6	227	VLPFC	739.758767604828	0.51685393258427	1320.9354005168	1.69350649350649	0.329746348962337	1355.29243119266	0.536781609195402	3	8	1	0	0	0	0
454.640502366424	6.02157416695354	panas_none	460.662076533377	93	5	16	n/a	n/a	n/a	n/a	n/a	n/a	n/a	n/a	n/a	n/a	n/a	n/a	n/a	n/a	n/a	n/a	enthusiastic	At this moment	2	2	6	227	NONE	n/a	0	1402.12609238452	0.24	0.0868562644119908	1223.11447811448	0.310025273799495	6	1	0	1	0	1	1
461.662861106277	6.02155935704707	panas_none	467.684420463324	94	5	16	n/a	n/a	n/a	n/a	n/a	n/a	n/a	n/a	n/a	n/a	n/a	n/a	n/a	n/a	n/a	n/a	inspired	At this moment	3	2	6	227	NONE	n/a	0.203495630461923	1449.04545454545	0.138147566718995	0	1015.18831667948	0.251538461538462	6	2	0	1	0	1	1
468.68525828135	6.02159885019068	panas_none	474.706857131541	95	5	16	n/a	n/a	n/a	n/a	n/a	n/a	n/a	n/a	n/a	n/a	n/a	n/a	n/a	n/a	n/a	n/a	scared	At this moment	1	2	6	227	NONE	n/a	0.0699126092384519	1396.8966442953	0.227150537634409	0.395080707148347	1513.08894536213	0.557251908396947	4	3	0	1	0	1	1
475.691039789975	14.0613359671831	panas_none	489.752375757158	96	5	16	n/a	n/a	n/a	n/a	n/a	n/a	n/a	n/a	n/a	n/a	n/a	n/a	n/a	n/a	n/a	n/a	n/a	n/a	n/a	2	6	227	NONE	n/a	0	1513.98876404494	0.03625	0.292083013066872	1339.31487513572	0.826985854189336	9	4	0	1	0	1	1
