onset	duration	trial_type	offset	trial	block	blockCntr	frequency	amplitude_1	amplitude_2	amplitude_3	amplitude_4	amplitude_5	amplitude_6	amplitude_7	amplitude_8	transition	sham	mode	rewardFraction	guess	outcome	correct	word	when	answer	runNr	scanNr	subjectNr	target	reactionTime	outcomeEyeClosed	outcomePupilArea	outcomeDilation	guessEyeClosed	guessPupilArea	guessDilation	nrBlinks	trialInBlock	isReward	isPanas	isPunish	beforePanasReward	beforePanasVLPFC
20.4640062653422	2.55214288884401	punish_rtpj	23.0161491541862	1	3	1	10	750	250	250	250	0	0	0	0	2000	0	BLOCKED	0.25	1	3	-1	n/a	n/a	n/a	1	4	227	RTPJ	1258.7461361289	0.374531835205993	2439.52694610778	0.685370741482966	0.230591852421214	2136.12187812188	0.516516516516517	3	1	0	0	1	0	0
24.0050318448544	2.51401370555163	punish_rtpj	26.519045550406	2	3	1	10	750	250	250	250	0	0	0	0	2000	0	BLOCKED	0.25	1	4	-1	n/a	n/a	n/a	1	4	227	RTPJ	435.181939780712	0.275905118601748	2347.67413793103	0.696027633851468	0	1951.55726364335	0.293846153846154	1	2	0	0	1	0	0
27.5205381782055	2.51807550096512	punish_rtpj	30.0386136791706	3	3	1	10	750	250	250	250	0	0	0	0	2000	0	BLOCKED	0.25	-1	7	-1	n/a	n/a	n/a	1	4	227	RTPJ	406.355145990849	0.640449438202247	2445.70486111111	1.82517482517483	0	2242.86087624904	0.426923076923077	1	3	0	0	1	0	0
31.029279554069	2.51205809152126	punish_rtpj	33.5413376455903	4	3	1	10	750	250	250	250	0	0	0	0	2000	0	BLOCKED	0.25	-1	1	1	n/a	n/a	n/a	1	4	227	RTPJ	568.712009966373	0.374531835205993	1915.56087824351	0.615230460921844	0	2134.6948501153	0.262307692307692	1	4	0	0	1	0	0
34.5428584827781	2.51813368278741	punish_rtpj	37.0609921655655	5	3	1	10	750	250	250	250	0	0	0	0	2000	0	BLOCKED	0.25	1	0	-1	n/a	n/a	n/a	1	4	227	RTPJ	506.927866578102	0.374531835205993	2002.97604790419	0.857715430861723	0	1970.68408916218	0.477692307692308	1	5	0	0	1	0	0
38.061753113091	2.51875146776437	punish_rtpj	40.5805045808554	6	3	1	10	750	250	250	250	0	0	0	0	2000	0	BLOCKED	0.25	1	4	-1	n/a	n/a	n/a	1	4	227	RTPJ	508.342213451862	0.543071161048689	2134.22677595628	2.07417582417582	0	1985.02459646426	0.665384615384615	1	6	0	0	1	0	0
41.5813847129345	2.51868235486746	punish_rtpj	44.100067067802	7	3	1	10	750	250	250	250	0	0	0	0	2000	0	BLOCKED	0.25	1	7	1	n/a	n/a	n/a	1	4	227	RTPJ	523.632039904594	0.374531835205993	1945.0119760479	-0.801603206412826	0	2003.47117601845	0.496923076923077	1	7	0	0	1	0	0
45.1008565772772	2.51882622259855	punish_rtpj	47.6196827998757	8	3	1	10	750	250	250	250	0	0	0	0	2000	0	BLOCKED	0.25	-1	7	-1	n/a	n/a	n/a	1	4	227	RTPJ	556.562943220139	0.399500624219725	2192.60706860707	0.0709812108559499	0	2069.95388162952	0.364615384615385	1	8	0	0	1	0	0
48.6328128470778	6.00907741993666	panas_none	54.6418902670145	9	5	2	n/a	n/a	n/a	n/a	n/a	n/a	n/a	n/a	n/a	n/a	n/a	n/a	n/a	n/a	n/a	n/a	distressed	At this moment	2	1	4	227	NONE	n/a	0	1557.60923845193	0.71125	0.230591852421214	1476.61838161838	-0.446446446446446	2	1	0	1	0	0	0
55.6259685508013	6.0217998418808	panas_none	61.6477683926821	10	5	2	n/a	n/a	n/a	n/a	n/a	n/a	n/a	n/a	n/a	n/a	n/a	n/a	n/a	n/a	n/a	n/a	alert	At this moment	5	1	4	227	NONE	n/a	0.0898876404494382	1723.47462277092	-0.137362637362637	0	1836.34588777863	0.00461538461538462	3	2	0	1	0	0	0
62.6484284917116	6.02156923037767	panas_none	68.6699977220893	11	5	2	n/a	n/a	n/a	n/a	n/a	n/a	n/a	n/a	n/a	n/a	n/a	n/a	n/a	n/a	n/a	n/a	inspired	At this moment	3	1	4	227	NONE	n/a	0	1827.52309612984	0.3	0	1822.91621829362	-0.27	1	3	0	1	0	0	0
69.6713605868816	11.7423127727509	panas_none	81.4136733596325	12	5	2	n/a	n/a	n/a	n/a	n/a	n/a	n/a	n/a	n/a	n/a	n/a	n/a	n/a	n/a	n/a	n/a	n/a	n/a	n/a	1	4	227	NONE	n/a	0	2621.81398252185	0.35375	0	2150.00768639508	0.266153846153846	3	4	0	1	0	0	0
82.3978186406493	2.51870492225885	punish_vlpfc	84.9165235629082	13	4	3	10	0	0	0	0	250	250	250	750	2000	0	BLOCKED	0.25	1	2	-1	n/a	n/a	n/a	1	4	227	VLPFC	841.099135458469	0	2437.29837702871	0.23625	0	2096.42582628747	0.819230769230769	1	1	0	0	1	0	0
85.9173183616996	2.51878602421283	punish_vlpfc	88.4361043859124	14	4	3	10	0	0	0	0	250	250	250	750	2000	0	BLOCKED	0.25	-1	3	1	n/a	n/a	n/a	1	4	227	VLPFC	1483.97144079208	0.415730337078652	1959.0235042735	1.54721030042918	0	2275.09838585703	0.318461538461538	1	2	0	0	1	0	0
89.4368445290923	2.51897537952661	punish_vlpfc	91.9558199086189	15	4	3	10	0	0	0	0	250	250	250	750	2000	0	BLOCKED	0.25	1	10	1	n/a	n/a	n/a	1	4	227	VLPFC	1472.29311782122	0.374531835205993	2146.04590818363	-0.362725450901804	0.230591852421214	2256.06693306693	0.597597597597598	2	3	0	0	1	0	0
92.9563823328018	2.51873912614583	punish_vlpfc	95.4751214589477	16	4	3	10	0	0	0	0	250	250	250	750	2000	0	BLOCKED	0.25	-1	8	-1	n/a	n/a	n/a	1	4	227	VLPFC	473.956059634686	0.360799001248439	2237.560546875	-0.297455968688845	0.0453497309761722	2019.54669887279	0.53505237711523	3	4	0	0	1	0	0
96.4759599822164	2.51863933557273	punish_vlpfc	98.9945993177891	17	4	3	10	0	0	0	0	250	250	250	750	2000	0	BLOCKED	0.25	-1	8	-1	n/a	n/a	n/a	1	4	227	VLPFC	640.45300000906	0.374531835205993	2101.45908183633	1.33066132264529	0.175249807840123	1850.17520969245	0.619402985074627	2	5	0	0	1	0	0
99.9787368412614	2.51885443192721	punish_vlpfc	102.497591273189	18	4	3	10	0	0	0	0	250	250	250	750	2000	0	BLOCKED	0.25	-1	9	-1	n/a	n/a	n/a	1	4	227	VLPFC	575.905749678612	0.380774032459426	2060.58064516129	1.78947368421053	0.230591852421214	2039.78221778222	0.748748748748749	2	6	0	0	1	0	0
103.498579658687	2.51839920336008	punish_vlpfc	106.016978862047	19	4	3	10	0	0	0	0	250	250	250	750	2000	0	BLOCKED	0.25	-1	10	-1	n/a	n/a	n/a	1	4	227	VLPFC	556.087615430355	0.398252184769039	2343.15145228216	1.55625	0	2096.18370484243	0.533076923076923	1	7	0	0	1	0	0
107.00116434139	2.51873983138799	punish_vlpfc	109.519904172778	20	4	3	10	0	0	0	0	250	250	250	750	2000	0	BLOCKED	0.25	-1	9	-1	n/a	n/a	n/a	1	4	227	VLPFC	489.645048677921	0.399500624219725	2517.24324324324	0.705636743215031	0	2164.11683320523	0.564615384615385	1	8	0	0	1	0	0
110.520605175495	6.02175400161742	panas_none	116.542359177113	21	5	4	n/a	n/a	n/a	n/a	n/a	n/a	n/a	n/a	n/a	n/a	n/a	n/a	n/a	n/a	n/a	n/a	determined	At this moment	4	1	4	227	NONE	n/a	0	1631.98876404494	0.36375	0.230591852421214	1868.93006993007	-0.342342342342342	4	1	0	1	0	0	1
117.543128940046	6.02146274000407	panas_none	123.56459168005	22	5	4	n/a	n/a	n/a	n/a	n/a	n/a	n/a	n/a	n/a	n/a	n/a	n/a	n/a	n/a	n/a	n/a	hostile	At this moment	3	1	4	227	NONE	n/a	0	1919.69413233458	-0.06125	0	2101.59262106072	0.0776923076923077	1	2	0	1	0	0	1
124.565312076628	6.02178326892854	panas_none	130.587095345557	23	5	4	n/a	n/a	n/a	n/a	n/a	n/a	n/a	n/a	n/a	n/a	n/a	n/a	n/a	n/a	n/a	n/a	guilty	At this moment	1	1	4	227	NONE	n/a	0	1906.04119850187	0.2375	0	1811.89085318985	-0.107692307692308	4	3	0	1	0	0	1
131.571197607279	6.67201010739802	panas_none	138.243207714677	24	5	4	n/a	n/a	n/a	n/a	n/a	n/a	n/a	n/a	n/a	n/a	n/a	n/a	n/a	n/a	n/a	n/a	n/a	n/a	n/a	1	4	227	NONE	n/a	0.0499375780274657	2194.83574244415	0.292105263157895	0.568024596464258	1676.40213523132	1.0304114490161	5	4	0	1	0	0	1
139.227411530137	2.51875358349085	reward_rtpj	141.746165113628	25	1	5	10	750	250	250	250	0	0	0	0	2000	0	BLOCKED	0.75	1	10	1	n/a	n/a	n/a	1	4	227	RTPJ	623.541135251522	0.374531835205993	1830.1497005988	1.4809619238477	0	1953.02075326672	0.703846153846154	2	1	1	0	0	0	0
142.730244102657	2.51867353940008	reward_rtpj	145.248917642057	26	1	5	10	750	250	250	250	0	0	0	0	2000	0	BLOCKED	0.75	1	7	1	n/a	n/a	n/a	1	4	227	RTPJ	389.760989189148	0.374531835205993	1798.28143712575	1.50501002004008	0	2038.97232897771	0.519230769230769	1	2	1	0	0	0	0
146.249653553784	2.51883750635386	reward_rtpj	148.768491060138	27	1	5	10	750	250	250	250	0	0	0	0	2000	0	BLOCKED	0.75	1	2	-1	n/a	n/a	n/a	1	4	227	RTPJ	840.78777462244	0.383270911360799	1933.11943319838	1.17276422764228	0	1839.29823212913	0.343076923076923	1	3	1	0	0	0	0
149.752749531209	2.51863651466368	reward_rtpj	152.271386045873	28	1	5	10	750	250	250	250	0	0	0	0	2000	0	BLOCKED	0.75	1	9	1	n/a	n/a	n/a	1	4	227	RTPJ	573.05836725235	0	1771.82147315855	-0.63125	0.230591852421214	1888.18381618382	0.584584584584585	1	4	1	0	0	0	0
153.259228163719	2.51492028385402	reward_rtpj	155.774148447573	29	1	5	10	750	250	250	250	0	0	0	0	2000	0	BLOCKED	0.75	1	6	1	n/a	n/a	n/a	1	4	227	RTPJ	569.377750813961	0.374531835205993	1817.81037924152	1.51102204408818	0	1942.43120676403	0.451538461538462	1	5	1	0	0	0	0
156.758144924164	2.51876839339732	reward_rtpj	159.276913317561	30	1	5	10	750	250	250	250	0	0	0	0	2000	0	BLOCKED	0.75	1	9	1	n/a	n/a	n/a	1	4	227	RTPJ	1074.37644970417	0.374531835205993	1800.24550898204	0.0200400801603206	0	1752.83320522675	0.481538461538462	2	6	1	0	0	0	0
160.277872083247	2.53530683678389	reward_rtpj	162.813178920031	31	1	5	10	750	250	250	250	0	0	0	0	2000	0	BLOCKED	0.75	1	6	1	n/a	n/a	n/a	1	4	227	RTPJ	759.354047954082	0.374531835205993	1631.7245508982	1.03006012024048	0	1990.6287471176	0.371538461538462	1	7	1	0	0	0	0
163.814047063112	2.51867953383922	reward_rtpj	166.332726596951	32	1	5	10	750	250	250	250	0	0	0	0	2000	0	BLOCKED	0.75	1	1	-1	n/a	n/a	n/a	1	4	227	RTPJ	690.393090367317	0.555555555555556	1742.76966292135	0.997183098591549	0	1876.93543428132	0.313076923076923	2	8	1	0	0	0	0
167.3334628613	6.02163693284987	panas_none	173.355099794149	33	5	6	n/a	n/a	n/a	n/a	n/a	n/a	n/a	n/a	n/a	n/a	n/a	n/a	n/a	n/a	n/a	n/a	distressed	At this moment	3	1	4	227	NONE	n/a	0.374531835205993	1577.94610778443	1.34268537074148	0.238278247501922	1626.12411705348	-0.0475227502527806	4	1	0	1	0	1	0
174.355925975859	6.02152021658418	panas_none	180.377446192443	34	5	6	n/a	n/a	n/a	n/a	n/a	n/a	n/a	n/a	n/a	n/a	n/a	n/a	n/a	n/a	n/a	n/a	nervous	At this moment	3	1	4	227	NONE	n/a	0	2593.85393258427	0.29375	0	2247.63259031514	0.245384615384615	2	2	0	1	0	1	0
181.382669860899	6.01722534137963	panas_none	187.399895202279	35	5	6	n/a	n/a	n/a	n/a	n/a	n/a	n/a	n/a	n/a	n/a	n/a	n/a	n/a	n/a	n/a	n/a	active	At this moment	3	1	4	227	NONE	n/a	0	2106.77028714107	-0.23875	0	2208.55880092237	-0.0338461538461538	1	3	0	1	0	1	0
188.387109309137	12.7241727428436	panas_none	201.11128205198	36	5	6	n/a	n/a	n/a	n/a	n/a	n/a	n/a	n/a	n/a	n/a	n/a	n/a	n/a	n/a	n/a	n/a	n/a	n/a	n/a	1	4	227	NONE	n/a	0.0724094881398252	2291.9663526245	0.672506738544474	0.328977709454266	2078.14547537228	0.851894374282434	7	4	0	1	0	1	0
202.111745743394	2.51878249806165	punish_rtpj	204.630528241456	37	3	7	10	750	250	250	250	0	0	0	0	2000	0	BLOCKED	0.25	1	4	-1	n/a	n/a	n/a	1	4	227	RTPJ	857.428476929665	0.411985018726592	2064.5923566879	1.54157782515991	0.230591852421214	1975.60639360639	0.801801801801802	2	1	0	0	1	0	0
205.6313974424	2.5186238204241	punish_rtpj	208.150021262825	38	3	7	10	750	250	250	250	0	0	0	0	2000	0	BLOCKED	0.25	1	3	-1	n/a	n/a	n/a	1	4	227	RTPJ	373.74829775095	0.403245942571785	2254.17991631799	1.40126050420168	0.230591852421214	2330.38061938062	0.697697697697698	2	2	0	0	1	0	0
209.150893637359	2.51874124187233	punish_rtpj	211.669634879231	39	3	7	10	750	250	250	250	0	0	0	0	2000	0	BLOCKED	0.25	-1	8	-1	n/a	n/a	n/a	1	4	227	RTPJ	440.15031349659	0.600499375780275	2340.18125	-0.820754716981132	0	2230.60645657187	0.494615384615385	2	3	0	0	1	0	0
212.670372201383	2.51876980382204	punish_rtpj	215.189142005205	40	3	7	10	750	250	250	250	0	0	0	0	2000	0	BLOCKED	0.25	-1	1	1	n/a	n/a	n/a	1	4	227	RTPJ	340.144953787327	0.374531835205993	2027.83233532934	1.23647294589178	0.230591852421214	2255.22677322677	0.618618618618619	2	4	0	0	1	0	0
216.173126845479	2.51880894440413	punish_rtpj	218.691935789883	41	3	7	10	750	250	250	250	0	0	0	0	2000	0	BLOCKED	0.25	-1	6	-1	n/a	n/a	n/a	1	4	227	RTPJ	373.140386044979	0.461922596754057	1979.30162412993	1.56643356643357	0	1949.13681783244	0.606923076923077	1	5	0	0	1	0	0
219.67612585324	2.51868940716983	punish_rtpj	222.19481526041	42	3	7	10	750	250	250	250	0	0	0	0	2000	0	BLOCKED	0.25	1	2	-1	n/a	n/a	n/a	1	4	227	RTPJ	306.197103083134	0.612983770287141	2249.86129032258	1.87012987012987	0	2061.07378939277	0.441538461538462	1	6	0	0	1	0	0
223.178996155798	2.51864744573831	punish_rtpj	225.697643601537	43	3	7	10	750	250	250	250	0	0	0	0	2000	0	BLOCKED	0.25	1	0	-1	n/a	n/a	n/a	1	4	227	RTPJ	306.549367427826	0.722846441947566	1986.87387387387	2.73059360730594	0	2079.48424289008	0.333846153846154	1	7	0	0	1	0	0
226.681750447333	2.51886465781928	punish_rtpj	229.200615105152	44	3	7	10	750	250	250	250	0	0	0	0	2000	0	BLOCKED	0.25	-1	1	1	n/a	n/a	n/a	1	4	227	RTPJ	573.568251490593	0.374531835205993	2032.7624750499	0.811623246492986	0.230591852421214	2044.80719280719	0.661661661661662	2	8	0	0	1	0	0
230.201364416301	6.02155724138021	panas_none	236.222921657681	45	5	8	n/a	n/a	n/a	n/a	n/a	n/a	n/a	n/a	n/a	n/a	n/a	n/a	n/a	n/a	n/a	n/a	active	At this moment	4	1	4	227	NONE	n/a	0	1535.4606741573	0.165	0.45119139123751	1553.04341736695	-0.10252808988764	4	1	0	1	0	0	0
237.223624070764	6.02167184191944	panas_none	243.245295912683	46	5	8	n/a	n/a	n/a	n/a	n/a	n/a	n/a	n/a	n/a	n/a	n/a	n/a	n/a	n/a	n/a	n/a	alert	At this moment	5	1	4	227	NONE	n/a	0	1668.78401997503	0.06375	0	1717.0099923136	-0.0946153846153846	2	2	0	1	0	0	0
244.246088243127	6.0215022331476	panas_none	250.267590476274	47	5	8	n/a	n/a	n/a	n/a	n/a	n/a	n/a	n/a	n/a	n/a	n/a	n/a	n/a	n/a	n/a	n/a	enthusiastic	At this moment	3	1	4	227	NONE	n/a	0	1880.58302122347	0.065	0	1853.94388931591	-0.152307692307692	2	3	0	1	0	0	0
251.251665939093	8.57376113301515	panas_none	259.825427072108	48	5	8	n/a	n/a	n/a	n/a	n/a	n/a	n/a	n/a	n/a	n/a	n/a	n/a	n/a	n/a	n/a	n/a	n/a	n/a	n/a	1	4	227	NONE	n/a	0.355805243445693	2133.17248062016	0.807766990291262	0.231360491929285	2022.497	0.463927855711423	4	4	0	1	0	0	0
260.826066014111	2.51926346772905	reward_rtpj	263.34532948184	49	1	9	10	750	250	250	250	0	0	0	0	2000	0	BLOCKED	0.75	1	1	-1	n/a	n/a	n/a	1	4	227	RTPJ	874.312837600708	0.887640449438202	1991.28888888889	5.47727272727273	0.230591852421214	1878.66833166833	0.915915915915916	4	1	1	0	0	0	0
264.32902905494	2.51877121430635	reward_rtpj	266.847800269246	50	1	9	10	750	250	250	250	0	0	0	0	2000	0	BLOCKED	0.75	1	9	1	n/a	n/a	n/a	1	4	227	RTPJ	389.832923054695	0.401997503121099	1579.40709812109	1.69182389937107	0	1812.88931591084	0.504615384615385	1	2	1	0	0	0	0
267.848647960603	2.51873983138802	reward_rtpj	270.367387791991	51	1	9	10	750	250	250	250	0	0	0	0	2000	0	BLOCKED	0.75	1	8	1	n/a	n/a	n/a	1	4	227	RTPJ	373.507107675076	0.374531835205993	1686.79241516966	0.0400801603206413	0	1794.35434281322	0.427692307692308	1	3	1	0	0	0	0
271.351326086879	2.51877438783646	reward_rtpj	273.870100474715	52	1	9	10	750	250	250	250	0	0	0	0	2000	0	BLOCKED	0.75	1	10	1	n/a	n/a	n/a	1	4	227	RTPJ	373.309994757175	0.405742821473159	1447.16386554622	1.42194092827004	0	1662.06225980015	0.339230769230769	1	4	1	0	0	0	0
274.854350835621	2.51866155040267	reward_rtpj	277.373012386024	53	1	9	10	750	250	250	250	0	0	0	0	2000	0	BLOCKED	0.75	1	10	1	n/a	n/a	n/a	1	4	227	RTPJ	606.833083093166	0.418227215980025	1483.88412017167	1.58836206896552	0	1627.23750960799	0.42	1	5	1	0	0	0	0
278.357213733196	2.51865097188949	reward_rtpj	280.875864705086	54	1	9	10	750	250	250	250	0	0	0	0	2000	0	BLOCKED	0.75	1	3	-1	n/a	n/a	n/a	1	4	227	RTPJ	524.162728488445	0	2027.99875156055	0.12375	0	1814.57494235204	0.29	0	6	1	0	0	0	0
281.859913721681	2.51876134103537	reward_rtpj	284.378675062716	55	1	9	10	750	250	250	250	0	0	0	0	2000	0	BLOCKED	0.75	1	10	1	n/a	n/a	n/a	1	4	227	RTPJ	423.734933555126	0	1809.05243445693	-0.06625	0	1870.5995388163	0.383846153846154	0	7	1	0	0	0	0
285.362818933249	2.51878390860554	reward_rtpj	287.881602841854	56	1	9	10	750	250	250	250	0	0	0	0	2000	0	BLOCKED	0.75	1	7	1	n/a	n/a	n/a	1	4	227	RTPJ	572.911326050758	0.347066167290886	1723.89674952199	-1.09770114942529	0.230591852421214	1875.84315684316	0.510510510510511	2	8	1	0	0	0	0
288.882426202536	6.02148883372547	panas_none	294.903915036261	57	5	10	n/a	n/a	n/a	n/a	n/a	n/a	n/a	n/a	n/a	n/a	n/a	n/a	n/a	n/a	n/a	n/a	afraid	At this moment	3	1	4	227	NONE	n/a	0	1500.37578027466	-0.015	0.30130668716372	1617.55335533553	0.41896361631753	1	1	0	1	0	1	0
295.887947479844	6.02178080052136	panas_none	301.909728280365	58	5	10	n/a	n/a	n/a	n/a	n/a	n/a	n/a	n/a	n/a	n/a	n/a	n/a	n/a	n/a	n/a	n/a	excited	At this moment	2	1	4	227	NONE	n/a	0	2154.67790262172	0.055	0	1957.06456571868	-0.126153846153846	3	2	0	1	0	1	0
302.910465249956	6.02189434325692	panas_none	308.932359593213	59	5	10	n/a	n/a	n/a	n/a	n/a	n/a	n/a	n/a	n/a	n/a	n/a	n/a	n/a	n/a	n/a	n/a	attentive	At this moment	4	1	4	227	NONE	n/a	0	1726.20724094881	-0.1275	0	1904.7809377402	0.02	3	3	0	1	0	1	0
309.932825400293	13.8612346250415	panas_none	323.794060025334	60	5	10	n/a	n/a	n/a	n/a	n/a	n/a	n/a	n/a	n/a	n/a	n/a	n/a	n/a	n/a	n/a	n/a	n/a	n/a	n/a	1	4	227	NONE	n/a	0	2069.08988764045	0.1725	0.253651037663336	1631.24510813594	0.711042311661507	4	4	0	1	0	1	0
324.778185207188	2.51884632170203	punish_vlpfc	327.29703152889	61	4	11	10	0	0	0	0	250	250	250	750	2000	0	BLOCKED	0.25	1	2	-1	n/a	n/a	n/a	1	4	227	VLPFC	739.958701431751	0	2246.57802746567	0.42625	0	1635.42121445042	0.688461538461538	0	1	0	0	1	0	0
328.297662360787	2.51868834924699	punish_vlpfc	330.816350710034	62	4	11	10	0	0	0	0	250	250	250	750	2000	0	BLOCKED	0.25	1	9	1	n/a	n/a	n/a	1	4	227	VLPFC	423.586129128933	0.374531835205993	1728.1996007984	0.843687374749499	0	1854.0384319754	0.449230769230769	1	2	0	0	1	0	0
331.800602481484	2.51873242646457	punish_vlpfc	334.319334907949	63	4	11	10	0	0	0	0	250	250	250	750	2000	0	BLOCKED	0.25	1	4	-1	n/a	n/a	n/a	1	4	227	VLPFC	656.760831832886	0	2021.21598002497	-0.19375	0	1861.08916218294	0.621538461538461	1	3	0	0	1	0	0
335.320041552424	2.5188011867404	punish_vlpfc	337.838842739165	64	4	11	10	0	0	0	0	250	250	250	750	2000	0	BLOCKED	0.25	1	0	-1	n/a	n/a	n/a	1	4	227	VLPFC	357.548719346523	0.374531835205993	1943.00798403194	1.03206412825651	0	1860.47425057648	0.318461538461538	1	4	0	0	1	0	0
338.839750728011	2.51859349536892	punish_vlpfc	341.35834422338	65	4	11	10	0	0	0	0	250	250	250	750	2000	0	BLOCKED	0.25	-1	10	-1	n/a	n/a	n/a	1	4	227	VLPFC	327.411248028278	0.759051186017478	2293.78238341969	3.43157894736842	0	2033.38201383551	0.5	1	5	0	0	1	0	0
342.359184509695	2.51865202975273	punish_vlpfc	344.877836539447	66	4	11	10	0	0	0	0	250	250	250	750	2000	0	BLOCKED	0.25	-1	2	1	n/a	n/a	n/a	1	4	227	VLPFC	325.882653295994	0.374531835205993	2017.28343313373	1.61923847695391	0.212913143735588	2179.7353515625	0.709677419354839	2	6	0	0	1	0	0
345.878714203179	2.51878108763691	punish_vlpfc	348.397495290816	67	4	11	10	0	0	0	0	250	250	250	750	2000	0	BLOCKED	0.25	-1	10	-1	n/a	n/a	n/a	1	4	227	VLPFC	556.551659524441	0	2244.31960049938	-0.14625	0	2150.52651806303	0.392307692307692	1	7	0	0	1	0	0
349.381554533243	2.51867636036877	punish_vlpfc	351.900230893612	68	4	11	10	0	0	0	0	250	250	250	750	2000	0	BLOCKED	0.25	-1	6	-1	n/a	n/a	n/a	1	4	227	VLPFC	724.678748309612	0	2046.62671660424	-0.0425	0.231360491929285	1914.96	0.830661322645291	2	8	0	0	1	0	0
352.884300362051	6.02165738457444	panas_none	358.905957746625	69	5	12	n/a	n/a	n/a	n/a	n/a	n/a	n/a	n/a	n/a	n/a	n/a	n/a	n/a	n/a	n/a	n/a	excited	At this moment	3	1	4	227	NONE	n/a	0	1491.66791510612	0.25	0.335126825518832	1447.61271676301	0.0683661645422943	3	1	0	1	0	0	1
359.906815311253	6.02150470137599	panas_none	365.928320012629	70	5	12	n/a	n/a	n/a	n/a	n/a	n/a	n/a	n/a	n/a	n/a	n/a	n/a	n/a	n/a	n/a	n/a	distressed	At this moment	2	1	4	227	NONE	n/a	0	1533.89762796504	0.285	0	1475.28439661799	-0.0823076923076923	4	2	0	1	0	0	1
366.912598230302	6.02142994666104	panas_none	372.934028176963	71	5	12	n/a	n/a	n/a	n/a	n/a	n/a	n/a	n/a	n/a	n/a	n/a	n/a	n/a	n/a	n/a	n/a	interested	At this moment	3	1	4	227	NONE	n/a	0	1554.68664169788	0.055	0.0146041506533436	1554.85959438378	0.358313817330211	3	3	0	1	0	0	1
373.91808706677	12.8438495482206	panas_none	386.76193661499	72	5	12	n/a	n/a	n/a	n/a	n/a	n/a	n/a	n/a	n/a	n/a	n/a	n/a	n/a	n/a	n/a	n/a	n/a	n/a	n/a	1	4	227	NONE	n/a	0	2282.98501872659	0.0625	0.230591852421214	1938.59340659341	0.282282282282282	6	4	0	1	0	0	1
387.762805110693	2.51872713720797	reward_vlpfc	390.281532247901	73	2	13	10	0	0	0	0	250	250	250	750	2000	0	BLOCKED	0.75	-1	1	1	n/a	n/a	n/a	1	4	227	VLPFC	740.278877735138	0	2045.52434456929	0.04625	0.230591852421214	2094.13886113886	0.784784784784785	1	1	1	0	0	0	0
391.265601363659	2.51870280665162	reward_vlpfc	393.784304170311	74	2	13	10	0	0	0	0	250	250	250	750	2000	0	BLOCKED	0.75	-1	2	1	n/a	n/a	n/a	1	4	227	VLPFC	556.488893568516	0.374531835205993	1916.19760479042	1.35470941883768	0	1981.84166026134	0.673076923076923	1	2	1	0	0	0	0
394.768411016047	2.51873242646451	reward_vlpfc	397.287143442512	75	2	13	10	0	0	0	0	250	250	250	750	2000	0	BLOCKED	0.75	-1	2	1	n/a	n/a	n/a	1	4	227	VLPFC	506.64577293396	0.374531835205993	1786.2874251497	1.08016032064128	0.230591852421214	1998.93006993007	0.356356356356356	2	3	1	0	0	0	0
398.287849734366	2.51886042642593	reward_vlpfc	400.806710160792	76	2	13	10	0	0	0	0	250	250	250	750	2000	0	BLOCKED	0.75	-1	2	1	n/a	n/a	n/a	1	4	227	VLPFC	439.752914249897	0.374531835205993	1726.36327345309	0.995991983967936	0	1821.79631053036	0.256923076923077	2	4	1	0	0	0	0
401.807535637259	2.51870210140942	reward_vlpfc	404.326237738669	77	2	13	10	0	0	0	0	250	250	250	750	2000	0	BLOCKED	0.75	-1	10	-1	n/a	n/a	n/a	1	4	227	VLPFC	356.271540462971	0.435705368289638	1910.09734513274	1.85333333333333	0	1851.73481936972	0.299230769230769	1	5	1	0	0	0	0
405.310397829592	2.5186640187502	reward_vlpfc	407.829061848342	78	2	13	10	0	0	0	0	250	250	250	750	2000	0	BLOCKED	0.75	-1	4	1	n/a	n/a	n/a	1	4	227	VLPFC	406.531454503536	0.570536828963795	1578.19476744186	-0.230994152046784	0	1882.33435818601	0.343076923076923	2	6	1	0	0	0	0
408.829975479066	2.5187271371484	reward_vlpfc	411.348702616215	79	2	13	10	0	0	0	0	250	250	250	750	2000	0	BLOCKED	0.75	-1	3	1	n/a	n/a	n/a	1	4	227	VLPFC	422.928498387337	0.374531835205993	1577.87425149701	1.36673346693387	0	1984.01767870869	0.312307692307692	1	7	1	0	0	0	0
412.349634230375	2.51854483419658	reward_vlpfc	414.868179064572	80	2	13	10	0	0	0	0	250	250	250	750	2000	0	BLOCKED	0.75	1	4	-1	n/a	n/a	n/a	1	4	227	VLPFC	323.063127636909	0.428214731585518	2325.00873362445	1.72368421052632	0	1939.69715603382	0.546153846153846	2	8	1	0	0	0	0
415.852215386927	6.02158721387389	panas_none	421.873802600801	81	5	14	n/a	n/a	n/a	n/a	n/a	n/a	n/a	n/a	n/a	n/a	n/a	n/a	n/a	n/a	n/a	n/a	inspired	At this moment	3	1	4	227	NONE	n/a	0.374531835205993	1400.4251497006	1.07014028056112	0.0253651037663336	1516.47318611987	0.142067876874507	3	1	0	1	0	1	1
422.874811085463	6.02139010089638	panas_none	428.896201186359	82	5	14	n/a	n/a	n/a	n/a	n/a	n/a	n/a	n/a	n/a	n/a	n/a	n/a	n/a	n/a	n/a	n/a	ashamed	At this moment	1	1	4	227	NONE	n/a	0	1978.20224719101	0.1	0.435049961568025	1980.91020408163	0.26158038147139	2	2	0	1	0	1	1
429.896967775762	6.02168912011382	panas_none	435.918656895876	83	5	14	n/a	n/a	n/a	n/a	n/a	n/a	n/a	n/a	n/a	n/a	n/a	n/a	n/a	n/a	n/a	n/a	excited	At this moment	3	1	4	227	NONE	n/a	0.149812734082397	1541.83406754772	0.216176470588235	0	1644.428132206	-0.102307692307692	2	3	0	1	0	1	1
436.919454868197	9.42442817860842	panas_none	446.343883046806	84	5	14	n/a	n/a	n/a	n/a	n/a	n/a	n/a	n/a	n/a	n/a	n/a	n/a	n/a	n/a	n/a	n/a	n/a	n/a	n/a	1	4	227	NONE	n/a	0.374531835205993	2288.5129740519	0.462925851703407	0.230591852421214	2149.02997002997	0.375375375375375	4	4	0	1	0	1	1
447.344495542586	2.51873383694891	reward_vlpfc	449.863229379535	85	2	15	10	0	0	0	0	250	250	250	750	2000	0	BLOCKED	0.75	1	10	1	n/a	n/a	n/a	1	4	227	VLPFC	991.355946421623	0.415730337078652	1725.87820512821	0.594420600858369	0.230591852421214	1646.86613386613	0.537537537537538	3	1	1	0	0	0	0
450.8641370157	2.51862029421329	reward_vlpfc	453.382757309914	86	2	15	10	0	0	0	0	250	250	250	750	2000	0	BLOCKED	0.75	1	1	-1	n/a	n/a	n/a	1	4	227	VLPFC	340.179862856865	0.374531835205993	1842.4750499002	1.50701402805611	0	1743.98616448885	0.349230769230769	1	2	1	0	0	0	0
454.366851814091	2.51867389208076	reward_vlpfc	456.885525706172	87	2	15	10	0	0	0	0	250	250	250	750	2000	0	BLOCKED	0.75	1	10	1	n/a	n/a	n/a	1	4	227	VLPFC	389.885462999344	0.374531835205993	1665.98203592814	1.13827655310621	0	1893.0853189854	0.489230769230769	1	3	1	0	0	0	0
457.886422058642	2.51872079002857	reward_vlpfc	460.40514284867	88	2	15	10	0	0	0	0	250	250	250	750	2000	0	BLOCKED	0.75	1	7	1	n/a	n/a	n/a	1	4	227	VLPFC	389.589969873428	0.374531835205993	1535.74650698603	1.09819639278557	0	1669.43658724058	0.298461538461538	1	4	1	0	0	0	0
461.405949283779	2.51870774328705	reward_vlpfc	463.924657027066	89	2	15	10	0	0	0	0	250	250	250	750	2000	0	BLOCKED	0.75	1	8	1	n/a	n/a	n/a	1	4	227	VLPFC	422.958470880985	0.380774032459426	1671.55040322581	1.57085020242915	0	1965.97617217525	0.196923076923077	1	5	1	0	0	0	0
464.908717680037	2.51870950633287	reward_vlpfc	467.42742718637	90	2	15	10	0	0	0	0	250	250	250	750	2000	0	BLOCKED	0.75	1	10	1	n/a	n/a	n/a	1	4	227	VLPFC	374.256066203117	0.374531835205993	1345.28143712575	0.909819639278557	0	1646.45887778632	0.13	1	6	1	0	0	0	0
468.428306260586	2.51872184795144	reward_vlpfc	470.947028108537	91	2	15	10	0	0	0	0	250	250	250	750	2000	0	BLOCKED	0.75	1	10	1	n/a	n/a	n/a	1	4	227	VLPFC	440.229299783707	0.374531835205993	1532.55289421158	0.486973947895792	0	1613.37893927748	0.436153846153846	1	7	1	0	0	0	0
471.947937507808	2.51866260832549	reward_vlpfc	474.466600116134	92	2	15	10	0	0	0	0	250	250	250	750	2000	0	BLOCKED	0.75	1	2	-1	n/a	n/a	n/a	1	4	227	VLPFC	623.085201442242	0.385767790262172	1742.63414634146	1.47959183673469	0	1778.15295926211	0.311538461538462	2	8	1	0	0	0	0
475.468930914581	6.02005967688558	panas_none	481.488990591466	93	5	16	n/a	n/a	n/a	n/a	n/a	n/a	n/a	n/a	n/a	n/a	n/a	n/a	n/a	n/a	n/a	n/a	scared	At this moment	2	1	4	227	NONE	n/a	0	1241.34956304619	0.44875	0.143735588009224	1206.93716337522	0.0655884995507637	2	1	0	1	0	1	1
482.47309990561	6.02166055816411	panas_none	488.494760463774	94	5	16	n/a	n/a	n/a	n/a	n/a	n/a	n/a	n/a	n/a	n/a	n/a	n/a	n/a	n/a	n/a	n/a	hostile	At this moment	3	1	4	227	NONE	n/a	0.198501872659176	2028.83489096573	0.452418096723869	0	1746.85626441199	0.181538461538462	4	2	0	1	0	1	1
489.495483681262	6.02152268493177	panas_none	495.517006366193	95	5	16	n/a	n/a	n/a	n/a	n/a	n/a	n/a	n/a	n/a	n/a	n/a	n/a	n/a	n/a	n/a	n/a	irritable	At this moment	3	1	4	227	NONE	n/a	0	1735.74656679151	0.00125	0	1706.12451960031	0.0907692307692308	2	3	0	1	0	1	1
496.517838894904	9.72462127172946	panas_none	506.242460166633	96	5	16	n/a	n/a	n/a	n/a	n/a	n/a	n/a	n/a	n/a	n/a	n/a	n/a	n/a	n/a	n/a	n/a	n/a	n/a	n/a	1	4	227	NONE	n/a	0.420724094881398	2202.92887931034	0.49244060475162	0.510376633358955	1791.29984301413	1.15457413249211	6	4	0	1	0	1	1
