onset	duration	trial_type	offset	trial	block	blockCntr	frequency	amplitude_1	amplitude_2	amplitude_3	amplitude_4	amplitude_5	amplitude_6	amplitude_7	amplitude_8	transition	sham	mode	rewardFraction	guess	outcome	correct	word	when	answer	runNr	scanNr	subjectNr	target	reactionTime	outcomeEyeClosed	outcomeParms_1	outcomeParms_2	outcomeParms_3	outcomeSigma	outcomePupilArea	guessEyeClosed	guessParms_1	guessParms_2	guessParms_3	guessSigma	guessPupilArea	nrBlinks	trialInBlock	isReward	isPanas	isPunish	beforePanasReward	beforePanasVLPFC
20.4354589887261	2.50931912899017	reward_vlpfc	22.9447781177163	1	2	1	10	0	0	0	0	250	250	250	750	2000	0	BLOCKED	0.75	-1	0	1	upset	At this moment	5	3	13	220	VLPFC	880.91536462307	0.776529338327091	n/a	n/a	n/a	n/a	2086.27932960894	0	2015.81989916821	-0.213212210298592	0.000286168726703754	51.412361732162	2082.25441967717	1	1	1	0	0	0	0
23.9328279396296	2.51437917780876	reward_vlpfc	26.4472071174383	2	2	1	10	0	0	0	0	250	250	250	750	2000	0	BLOCKED	0.75	1	9	1	afraid	At this moment	1	3	13	220	VLPFC	586.897259175777	0.374531835205993	n/a	n/a	n/a	n/a	1871.96806387226	0	1274.84510588056	0.489230551700003	2.17571022037428e-06	32.2668829184054	1694.07302075327	1	2	1	0	0	0	0
27.4357946798205	2.51420710086822	reward_vlpfc	29.9500017806888	3	2	1	10	0	0	0	0	250	250	250	750	2000	0	BLOCKED	0.75	-1	9	-1	alert	At this moment	4	3	13	220	VLPFC	502.241055071354	0	1605.63997554665	0.832184274378645	-0.000293578678548678	34.802606329763	2043.12484394507	0	1535.99858376449	0.315346613077862	5.56294302238384e-05	30.543132907465	1851.89085318985	0	3	1	0	0	0	0
30.9548996258974	2.54805300956965	reward_vlpfc	33.5029526354671	4	2	1	10	0	0	0	0	250	250	250	750	2000	0	BLOCKED	0.75	-1	4	1	excited	At this moment	2	3	13	220	VLPFC	704.887019872665	0.68039950062422	n/a	n/a	n/a	n/a	1967.953125	0	1474.92844350914	0.481318416321752	-6.28153772235574e-05	31.1975008229798	1828.86471944658	1	4	1	0	0	0	0
34.5084047940373	2.51403960800171	reward_vlpfc	37.022444402039	5	2	1	10	0	0	0	0	250	250	250	750	2000	0	BLOCKED	0.75	1	9	1	guilty	At this moment	5	3	13	220	VLPFC	1102.92104101181	0	8815.703760343	-6.04604984204412	0.00127808976159355	21.9876243409195	1811.15480649189	0	1459.6049034791	0.373305269832426	1.16398318140152e-05	31.1427694727683	1787.13528055342	0	5	1	0	0	0	0
38.0116141344309	2.5137769086361	reward_vlpfc	40.525391043067	6	2	1	10	0	0	0	0	250	250	250	750	2000	0	BLOCKED	0.75	1	4	-1	interested	At this moment	4	3	13	220	VLPFC	484.966718256474	0.645443196004994	n/a	n/a	n/a	n/a	1966.66197183099	0	1460.71724565239	0.220016901184194	0.000121719281018203	36.8508816419395	1752.36894696387	1	6	1	0	0	0	0
41.531609790206	2.52984141772986	reward_vlpfc	44.0614512079358	7	2	1	10	0	0	0	0	250	250	250	750	2000	0	BLOCKED	0.75	-1	0	1	determined	At this moment	5	3	13	220	VLPFC	523.621965289116	0.379525593008739	n/a	n/a	n/a	n/a	1745.40040241449	0	1491.5014870712	0.499544457887135	-0.000151680468175669	22.2333881496636	1785.00461183705	1	7	1	0	0	0	0
45.0502813704014	2.53069192910195	reward_vlpfc	47.5809732995033	8	2	1	10	0	0	0	0	250	250	250	750	2000	0	BLOCKED	0.75	1	6	1	alert	At this moment	5	3	13	220	VLPFC	802.324166893959	0	10466.467253353	-7.52191236507566	0.00158932222621425	24.7768487525915	1748.28464419476	0	1378.10493326548	0.502649806562331	-4.82291162865125e-05	29.7948062461477	1764.62490392006	1	8	1	0	0	0	0
48.6000759536028	6.0199944216013	panas_none	54.6200703752041	9	5	2	10	n/a	n/a	n/a	n/a	n/a	n/a	n/a	n/a	2000	0	BLOCKED	n/a	n/a	+	0	inspired	At this moment	1	3	13	220	NONE	n/a	0	3165.30645874816	-2.02440578506036	0.000568646570538306	16.9368061815607	1452.48439450687	0.205995388162952	637.552597551684	2.22524553843868	-0.00112434137355635	26.1636557816383	1638.7986447241	2	1	0	1	0	1	1
55.6246776643395	6.00104233473539	panas_none	61.6257199990749	10	5	2	10	n/a	n/a	n/a	n/a	n/a	n/a	n/a	n/a	2000	0	BLOCKED	n/a	n/a	+	0	hostile	At this moment	1	3	13	220	NONE	n/a	0	-424.641361421101	1.61928433433521	-0.000278881337931524	48.0466800494841	1736.23845193508	0.528055342044581	n/a	n/a	n/a	n/a	1864.32736156352	2	2	0	1	0	1	1
62.631260664463	6.01727539461851	panas_none	68.6485360590816	11	5	2	10	n/a	n/a	n/a	n/a	n/a	n/a	n/a	n/a	2000	0	BLOCKED	n/a	n/a	+	0	jittery	At this moment	5	3	13	220	NONE	n/a	0	3142.61143801786	-1.75623862963405	0.000455810382698018	17.5520317124311	1489.21223470662	0.229823212913144	1764.75946730249	-0.172595684585572	4.35203157825164e-05	19.4284618159762	1649.38922155689	3	3	0	1	0	1	1
69.6384254820347	14.0555610995293	panas_none	83.6939865815639	12	5	2	10	n/a	n/a	n/a	n/a	n/a	n/a	n/a	n/a	2000	0	BLOCKED	n/a	n/a	+	0	determined	At this moment	2	3	13	220	NONE	n/a	0	1042.78990559719	0.833482331424671	-0.000234706660562726	14.7767803324011	1746.40199750312	0	1302.70887343553	0.441316936678295	-1.43675670069368e-05	35.5167163049946	1665.31206764028	3	4	0	1	0	1	1
84.682332248807	2.54761858582496	punish_rtpj	87.2299508346319	13	3	3	10	750	250	250	250	0	0	0	0	2000	0	BLOCKED	0.25	1	1	-1	nervous	At this moment	5	3	13	220	RTPJ	754.925437450409	0.354556803995006	n/a	n/a	n/a	n/a	1751.21276595745	0	1148.79849899045	0.751579134031915	-0.000184079706148393	21.3130234376137	1628.68639508071	1	1	0	0	1	0	0
88.2327474372983	2.51690250253677	punish_rtpj	90.7496499398351	14	3	3	10	750	250	250	250	0	0	0	0	2000	0	BLOCKED	0.25	-1	9	-1	active	At this moment	2	3	13	220	RTPJ	322.45064330101	1	n/a	n/a	n/a	n/a	n/a	1	n/a	n/a	n/a	n/a	n/a	1	2	0	0	1	0	0
91.7338407251835	2.51840218114853	punish_rtpj	94.252242906332	15	3	3	10	750	250	250	250	0	0	0	0	2000	0	BLOCKED	0.25	-1	9	-1	guilty	At this moment	5	3	13	220	RTPJ	1328.76953363419	0	7616.03254863077	-5.11005710469441	0.00109128299742223	19.6013578474062	1740.45692883895	0	1426.67030563182	0.223404436601807	4.79312107088871e-05	20.8191746063202	1657.70407378939	0	3	0	0	1	0	0
95.2579119241238	2.51395039600135	punish_rtpj	97.7718623201251	16	3	3	10	750	250	250	250	0	0	0	0	2000	0	BLOCKED	0.25	-1	10	-1	ashamed	At this moment	1	3	13	220	RTPJ	1285.98831915855	0	5871.09249345549	-3.66284195457799	0.00081226417658152	21.4914581712383	1800.29213483146	0	1429.5796709328	0.372549907837341	-4.62886389866291e-05	29.6852498035878	1705.82551883167	0	4	0	0	1	0	0
98.7768945122361	2.53123319566251	punish_rtpj	101.308127707899	17	3	3	10	750	250	250	250	0	0	0	0	2000	0	BLOCKED	0.25	-1	0	1	scared	At this moment	3	3	13	220	RTPJ	468.944170594215	0.611735330836454	n/a	n/a	n/a	n/a	1901.54019292604	0	1429.00506438599	0.447065177035338	-3.12599885628623e-05	29.286482264942	1782.83397386626	1	5	0	0	1	0	0
102.295568208218	2.51523638892174	punish_rtpj	104.810804597139	18	3	3	10	750	250	250	250	0	0	0	0	2000	0	BLOCKED	0.25	1	0	-1	hostile	At this moment	5	3	13	220	RTPJ	423.00597935915	0	4244.99823452175	-2.05443640646558	0.000432091659096407	24.9290943819612	1860.01373283396	0	1394.54132765997	0.567436896278823	-0.000111641264947993	24.3228109337762	1780.67102229055	0	6	0	0	1	0	0
105.799529679894	2.54776597964764	punish_rtpj	108.347295659542	19	3	3	10	750	250	250	250	0	0	0	0	2000	0	BLOCKED	0.25	1	7	1	inspired	At this moment	1	3	13	220	RTPJ	829.475648462772	0.752808988764045	n/a	n/a	n/a	n/a	1844.74242424242	0	1458.8674071497	0.34917088271144	7.49351206812781e-06	25.8926311039484	1762.62490392006	1	7	0	0	1	0	0
109.352106408417	2.5311379891038	punish_rtpj	111.883244397521	20	3	3	10	750	250	250	250	0	0	0	0	2000	0	BLOCKED	0.25	-1	8	-1	enthusiastic	At this moment	3	3	13	220	RTPJ	1310.18557864428	0	4381.21115237619	-1.93486133595445	0.000373100693255643	28.6726463602647	1986.53183520599	0	1557.07135325883	0.393511872725226	-3.63524613488673e-05	22.4647269895696	1860.41352805534	0	8	0	0	1	0	0
112.888574550748	6.01717525148391	panas_none	118.905749802232	21	5	4	10	n/a	n/a	n/a	n/a	n/a	n/a	n/a	n/a	2000	0	BLOCKED	n/a	n/a	+	0	excited	At this moment	1	3	13	220	NONE	n/a	0.205992509363296	1939.43134275155	-0.815019053318805	0.000277682870056521	18.0741431620995	1434.54716981132	0.259031514219831	n/a	n/a	n/a	n/a	1601.06846473029	4	1	0	1	0	0	0
119.91083523953	6.00043442368508	panas_none	125.911269663215	22	5	4	10	n/a	n/a	n/a	n/a	n/a	n/a	n/a	n/a	2000	0	BLOCKED	n/a	n/a	+	0	nervous	At this moment	1	3	13	220	NONE	n/a	0	2584.89358101289	-1.27534743161324	0.000381039407434308	17.2704679775466	1607.16978776529	0	1771.94190356753	-0.1172723298247	4.06187015269873e-05	19.1071576181087	1706.53804765565	2	2	0	1	0	0	0
126.914541945696	6.00244751209021	panas_none	132.916989457786	23	5	4	10	n/a	n/a	n/a	n/a	n/a	n/a	n/a	n/a	2000	0	BLOCKED	n/a	n/a	+	0	attentive	At this moment	3	3	13	220	NONE	n/a	0.382022471910112	n/a	n/a	n/a	n/a	1378.6101010101	0	1582.44514463867	-0.285430275992064	0.000173744999883887	22.8606755836355	1489.62336664105	8	3	0	1	0	0	0
133.919566027641	9.63938107311725	panas_none	143.558947100759	24	5	4	10	n/a	n/a	n/a	n/a	n/a	n/a	n/a	n/a	2000	0	BLOCKED	n/a	n/a	+	0	hostile	At this moment	4	3	13	220	NONE	n/a	1	n/a	n/a	n/a	n/a	n/a	1	n/a	n/a	n/a	n/a	n/a	6	4	0	1	0	0	0
144.545148506224	2.51658444237708	reward_rtpj	147.061732948601	25	1	5	10	750	250	250	250	0	0	0	0	2000	0	BLOCKED	0.75	-1	3	1	interested	At this moment	1	3	13	220	RTPJ	812.36809939146	0.837702871410737	n/a	n/a	n/a	n/a	1919.95384615385	0	1638.57638000167	0.224520940008347	-1.52547120191306e-05	16.5097195334208	1816.22213681783	1	1	1	0	0	0	0
148.067454153657	2.54743593043088	reward_rtpj	150.614890084088	26	1	5	10	750	250	250	250	0	0	0	0	2000	0	BLOCKED	0.75	1	8	1	excited	At this moment	2	3	13	220	RTPJ	456.750334382057	0.631710362047441	n/a	n/a	n/a	n/a	2018.85762711864	0	1623.29550027861	0.119823216124637	0.000173549992252134	23.5005494251997	1875.11760184473	1	2	1	0	0	0	0
151.603046748877	2.51466479730604	reward_rtpj	154.117711546183	27	1	5	10	750	250	250	250	0	0	0	0	2000	0	BLOCKED	0.75	1	9	1	inspired	At this moment	3	3	13	220	RTPJ	419.097929000854	0	8723.39360751623	-5.9402577991399	0.00125087820770585	16.2200816860217	1827.10362047441	0	1573.95416063572	0.357547167293767	1.83167284605719e-05	21.2083518842306	1894.30976172175	0	3	1	0	0	0	0
155.123569566488	2.51351703017949	reward_rtpj	157.637086596668	28	1	5	10	750	250	250	250	0	0	0	0	2000	0	BLOCKED	0.75	-1	6	-1	upset	At this moment	5	3	13	220	RTPJ	467.954023063183	0	4797.24156757938	-2.33827247096422	0.000456716861206055	18.0325575155673	1923.92759051186	0	1466.03755660507	0.576481955054477	-0.000138631685075645	29.689487648361	1837.94542659493	0	4	1	0	0	0	0
158.640426581502	2.53283865916728	reward_rtpj	161.173265240669	29	1	5	10	750	250	250	250	0	0	0	0	2000	0	BLOCKED	0.75	-1	0	1	determined	At this moment	2	3	13	220	RTPJ	1154.5931314826	0.777777777777778	n/a	n/a	n/a	n/a	1777.18539325843	0	1353.61511207778	0.233057815160966	0.000110697685594181	29.131634544295	1648.16679477325	1	5	1	0	0	0	0
162.177843262613	2.51511896759271	reward_rtpj	164.692962230206	30	1	5	10	750	250	250	250	0	0	0	0	2000	0	BLOCKED	0.75	-1	1	1	proud	At this moment	5	3	13	220	RTPJ	335.671299219131	0.374531835205993	n/a	n/a	n/a	n/a	1789.83233532934	0	1447.17339082423	0.525440183110711	-8.54662701508499e-05	27.1886314042878	1820.3143735588	1	6	1	0	0	0	0
165.676934393167	2.51872553062438	reward_rtpj	168.195659923792	31	1	5	10	750	250	250	250	0	0	0	0	2000	0	BLOCKED	0.75	-1	4	1	afraid	At this moment	5	3	13	220	RTPJ	606.97912967205	0.749063670411985	n/a	n/a	n/a	n/a	1642.93532338308	0	1485.61841470649	0.629238301835438	-0.000213911731876315	22.0426757739486	1836.50269023828	1	7	1	0	0	0	0
169.182935752153	2.54901177424193	reward_rtpj	171.731947526395	32	1	5	10	750	250	250	250	0	0	0	0	2000	0	BLOCKED	0.75	1	1	-1	excited	At this moment	5	3	13	220	RTPJ	787.883457362652	0	2179.04480803423	0.260656693656406	-0.000155165884945293	27.2039428812638	2033.52684144819	0	1522.60946923188	0.497616105648492	-7.98046998695638e-05	25.0775829961977	1877.20753266718	0	8	1	0	0	0	0
172.72033198148	6.00047744292021	panas_none	178.7208094244	33	5	6	10	n/a	n/a	n/a	n/a	n/a	n/a	n/a	n/a	2000	0	BLOCKED	n/a	n/a	+	0	upset	At this moment	2	3	13	220	NONE	n/a	0	3018.50048886739	-1.49482577963812	0.000352008722159925	18.6324821918923	1450.63920099875	0.116833205226749	717.184347961529	1.65993987882694	-0.000714591849530058	58.7700858970142	1566.63011314186	4	1	0	1	0	1	0
179.709899112821	6.06665477174519	panas_none	185.776553884566	34	5	6	10	n/a	n/a	n/a	n/a	n/a	n/a	n/a	n/a	2000	0	BLOCKED	n/a	n/a	+	0	determined	At this moment	1	3	13	220	NONE	n/a	0	7064.86692181587	-5.54646692297834	0.00138854128120024	33.3611725454514	1613.64419475655	0.414296694850115	n/a	n/a	n/a	n/a	1741.89501312336	3	2	0	1	0	1	0
186.781762737691	6.03377785354854	panas_none	192.81554059124	35	5	6	10	n/a	n/a	n/a	n/a	n/a	n/a	n/a	n/a	2000	0	BLOCKED	n/a	n/a	+	0	nervous	At this moment	2	3	13	220	NONE	n/a	0	2926.87863013034	-1.61406788361686	0.000485765694747366	24.7648398957249	1704.34207240949	0.45196003074558	n/a	n/a	n/a	n/a	1820.64656381487	3	3	0	1	0	1	0
193.820399648666	8.31960255873204	panas_none	202.140002207398	36	5	6	10	n/a	n/a	n/a	n/a	n/a	n/a	n/a	n/a	2000	0	BLOCKED	n/a	n/a	+	0	active	At this moment	5	3	13	220	NONE	n/a	0	1006.53928318047	1.0388972489753	-0.000222896879019706	20.3968860007245	2193.05243445693	0	1807.42157217034	-0.00406796077458935	0.000140378824278388	29.6468783987373	1925.81706379708	2	4	0	1	0	1	0
203.129290771544	2.5134810632467	punish_vlpfc	205.642771834791	37	4	7	10	0	0	0	0	250	250	250	750	2000	0	BLOCKED	0.25	1	4	-1	strong	At this moment	5	3	13	220	VLPFC	585.006881356239	0.637952559300874	n/a	n/a	n/a	n/a	2023.19655172414	0	1179.80312782365	0.568667440232039	2.80113748726511e-07	24.0377502025419	1663.41967717141	1	1	0	0	1	0	0
206.631208477199	2.51461472570898	punish_vlpfc	209.145823202908	38	4	7	10	0	0	0	0	250	250	250	750	2000	0	BLOCKED	0.25	1	4	-1	ashamed	At this moment	5	3	13	220	VLPFC	969.319530963898	0	4681.07312537758	-2.3650716194332	0.000523197471857855	23.4799670417571	2049.95630461923	0	1295.68144566981	0.808214949526766	-0.000187894864447551	33.0172926211762	1832.12528823982	0	2	0	0	1	0	0
210.151213300943	2.54722541832925	punish_vlpfc	212.698438719273	39	4	7	10	0	0	0	0	250	250	250	750	2000	0	BLOCKED	0.25	1	6	1	afraid	At this moment	1	3	13	220	VLPFC	701.977227330208	0.699126092384519	n/a	n/a	n/a	n/a	1986.58921161826	0	1476.17144345417	0.724878370680484	-0.00021714561632011	33.009836019762	1905.7432744043	1	3	0	0	1	0	0
213.70333303833	2.51455090212824	punish_vlpfc	216.217883940458	40	4	7	10	0	0	0	0	250	250	250	750	2000	0	BLOCKED	0.25	1	1	-1	distressed	At this moment	4	3	13	220	VLPFC	486.884247541428	0.561797752808989	n/a	n/a	n/a	n/a	2121.1339031339	0	1532.61683544132	0.281640796102838	7.03044098545933e-05	21.93847214962	1832.25826287471	1	4	0	0	1	0	0
217.223355140328	2.53083368092774	punish_vlpfc	219.754188821256	41	4	7	10	0	0	0	0	250	250	250	750	2000	0	BLOCKED	0.25	-1	10	-1	irritable	At this moment	4	3	13	220	VLPFC	496.702152788639	1	n/a	n/a	n/a	n/a	n/a	1	n/a	n/a	n/a	n/a	n/a	1	5	0	0	1	0	0
220.759696693301	2.5140910900235	punish_vlpfc	223.273787783325	42	4	7	10	0	0	0	0	250	250	250	750	2000	0	BLOCKED	0.25	1	3	-1	interested	At this moment	4	3	13	220	VLPFC	468.635278344154	0	5536.7336887204	-2.87439632307453	0.000566310510365057	21.2780996798621	2027.45942571785	0	1624.78135815676	0.746848529001946	-0.000223555432704188	27.7260756422148	2066.75403535742	0	6	0	0	1	0	0
224.280994209707	2.52889428937434	punish_vlpfc	226.809888499081	43	4	7	10	0	0	0	0	250	250	250	750	2000	0	BLOCKED	0.25	-1	6	-1	jittery	At this moment	4	3	13	220	VLPFC	367.302422702312	0	2041.78548375249	0.0592243286128219	-5.50297198253298e-05	19.6317829897369	1920.822721598	0	1522.96934637552	0.290532128434909	1.1157748023935e-05	35.0843423607093	1780.11683320523	0	7	0	0	1	0	0
227.814783875942	2.54805159914494	punish_vlpfc	230.362835475087	44	4	7	10	0	0	0	0	250	250	250	750	2000	0	BLOCKED	0.25	1	9	1	hostile	At this moment	4	3	13	220	VLPFC	420.106412708759	0.559300873907616	n/a	n/a	n/a	n/a	2150.35694050992	0	1690.8681697032	-0.00659737699781884	0.000264820110537827	32.4553207370192	1912.93082244427	2	8	0	0	1	0	0
231.351602871835	6.03357615691422	panas_none	237.385179028749	45	5	8	10	n/a	n/a	n/a	n/a	n/a	n/a	n/a	n/a	2000	0	BLOCKED	n/a	n/a	+	0	nervous	At this moment	2	3	13	220	NONE	n/a	0	1799.0475435874	-0.69684809437622	0.000290248880871956	18.8288760604952	1631.83395755306	0.183704842428901	899.452824194214	1.75991283498095	-0.000929272606791143	20.3241677953314	1635.69114877589	4	1	0	1	0	0	1
238.390327937007	6.03388293343781	panas_none	244.424210870445	46	5	8	10	n/a	n/a	n/a	n/a	n/a	n/a	n/a	n/a	2000	0	BLOCKED	n/a	n/a	+	0	irritable	At this moment	4	3	13	220	NONE	n/a	0	2134.83643516072	-0.797730129933737	0.000264574695206475	21.1567260789484	1640.46691635456	0.487317448116833	n/a	n/a	n/a	n/a	1766.66416791604	4	2	0	1	0	0	1
245.429554775655	6.05037798738479	panas_none	251.47993276304	47	5	8	10	n/a	n/a	n/a	n/a	n/a	n/a	n/a	n/a	2000	0	BLOCKED	n/a	n/a	+	0	alert	At this moment	4	3	13	220	NONE	n/a	0.265917602996255	n/a	n/a	n/a	n/a	1551.29081632653	0.435818601076095	n/a	n/a	n/a	n/a	1830.54768392371	9	3	0	1	0	0	1
252.485539015114	8.5855284013152	panas_none	261.07106741643	48	5	8	10	n/a	n/a	n/a	n/a	n/a	n/a	n/a	n/a	2000	0	BLOCKED	n/a	n/a	+	0	excited	At this moment	4	3	13	220	NONE	n/a	0	3008.39044451533	-1.07645974584851	0.00030915218174597	25.9374921665633	2127.69413233458	0.437355880092237	n/a	n/a	n/a	n/a	1961.27049180328	5	4	0	1	0	0	1
262.074402112007	2.54966623073818	punish_vlpfc	264.624068342745	49	4	9	10	0	0	0	0	250	250	250	750	2000	0	BLOCKED	0.25	-1	1	1	guilty	At this moment	1	3	13	220	VLPFC	537.65434473753	0.792759051186018	n/a	n/a	n/a	n/a	1969.03012048193	0	1264.87394002144	0.68586390505703	-8.59464378141245e-05	23.5348146408044	1774.89392774789	1	1	0	0	1	0	0
265.630304015517	2.52993274539705	punish_vlpfc	268.160236760914	50	4	9	10	0	0	0	0	250	250	250	750	2000	0	BLOCKED	0.25	-1	9	-1	interested	At this moment	4	3	13	220	VLPFC	306.16574883461	0.585518102372035	n/a	n/a	n/a	n/a	2002.3313253012	0	1444.97908566211	0.52176270188266	-6.26712571689916e-05	24.0580846101219	1834.23597232898	1	2	0	0	1	0	0
269.165850770473	2.53057274466755	punish_vlpfc	271.696423515141	51	4	9	10	0	0	0	0	250	250	250	750	2000	0	BLOCKED	0.25	1	0	-1	scared	At this moment	3	3	13	220	VLPFC	358.252163946629	1	n/a	n/a	n/a	n/a	n/a	1	n/a	n/a	n/a	n/a	n/a	1	3	0	0	1	0	0
272.703843627214	2.52883540242908	punish_vlpfc	275.232679029644	52	4	9	10	0	0	0	0	250	250	250	750	2000	0	BLOCKED	0.25	-1	4	1	enthusiastic	At this moment	2	3	13	220	VLPFC	608.383249104023	1	n/a	n/a	n/a	n/a	n/a	1	n/a	n/a	n/a	n/a	n/a	2	4	0	0	1	0	0
276.238475342035	2.51362246257065	punish_vlpfc	278.752097804606	53	4	9	10	0	0	0	0	250	250	250	750	2000	0	BLOCKED	0.25	-1	7	-1	nervous	At this moment	4	3	13	220	VLPFC	686.176828086376	0.671660424469413	n/a	n/a	n/a	n/a	2349.38783269962	0	1974.6554292571	0.330612918112942	-9.23567084068382e-05	22.4369484729906	2176.49116064566	1	5	0	0	1	0	0
279.740732617497	2.53089186269045	punish_vlpfc	282.271624480188	54	4	9	10	0	0	0	0	250	250	250	750	2000	0	BLOCKED	0.25	1	0	-1	strong	At this moment	3	3	13	220	VLPFC	668.860529899597	0.978776529338327	n/a	n/a	n/a	n/a	213.411764705882	0.146041506533436	1707.63085719628	0.466033671391765	-0.000146882055546274	26.4888166290085	1989.6804680468	8	6	0	0	1	0	0
283.278371799707	2.51291158735751	punish_vlpfc	285.791283387065	55	4	9	10	0	0	0	0	250	250	250	750	2000	0	BLOCKED	0.25	1	3	-1	active	At this moment	3	3	13	220	VLPFC	311.739560127258	0	3867.32631570236	-1.51931160419465	0.000288878123290812	20.3063481582963	1965.19101123596	0.139123750960799	1630.05460217475	0.706553151943729	-0.000270344223629894	24.874642132076	1983.07767857143	1	7	0	0	1	0	0
286.780334640265	2.53034706991912	punish_vlpfc	289.310681710184	56	4	9	10	0	0	0	0	250	250	250	750	2000	0	BLOCKED	0.25	-1	7	-1	guilty	At this moment	3	3	13	220	VLPFC	568.978339076042	0.98501872659176	n/a	n/a	n/a	n/a	234.833333333333	0.178324365872406	1776.52045671709	-0.491677587175235	0.000635239840954614	35.2526543126994	1816.93077642657	8	8	0	0	1	0	0
290.299210738182	6.01716573089362	panas_none	296.316376469076	57	5	10	10	n/a	n/a	n/a	n/a	n/a	n/a	n/a	n/a	2000	0	BLOCKED	n/a	n/a	+	0	irritable	At this moment	4	3	13	220	NONE	n/a	0	4433.52852238818	-2.51110962413148	0.000540127105780806	29.8727346032622	1568.0986267166	0.423520368946964	n/a	n/a	n/a	n/a	1818.844	2	1	0	1	0	0	1
297.321336727381	6.03415444821121	panas_none	303.355491175592	58	5	10	10	n/a	n/a	n/a	n/a	n/a	n/a	n/a	n/a	2000	0	BLOCKED	n/a	n/a	+	0	hostile	At this moment	1	3	13	220	NONE	n/a	0	4277.49326495337	-2.55648797173254	0.000624647080614269	12.4022233479632	1696.822721598	0	1649.15303904555	-0.0912975440288066	0.000126091858405234	18.0866727482184	1678.93005380477	1	2	0	1	0	0	1
304.344037834346	6.01709520757197	panas_none	310.361133041918	59	5	10	10	n/a	n/a	n/a	n/a	n/a	n/a	n/a	n/a	2000	0	BLOCKED	n/a	n/a	+	0	determined	At this moment	3	3	13	220	NONE	n/a	0	2908.1044718864	-1.19722214971771	0.000281101960246508	15.6579329597543	1649.01997503121	0	1459.37767581716	0.738566128846154	-0.000395369131268089	22.7332577725573	1752.79631053036	0	3	0	1	0	0	1
311.365866567731	7.23515016710758	panas_none	318.601016734838	60	5	10	10	n/a	n/a	n/a	n/a	n/a	n/a	n/a	n/a	2000	0	BLOCKED	n/a	n/a	+	0	upset	At this moment	5	3	13	220	NONE	n/a	0	1874.07767636688	-0.105234070769899	9.54862262172808e-07	18.4488793768169	1657.17228464419	0	1524.39362374325	0.080908657270228	4.04163718440011e-05	16.5731320826023	1628.16679477325	3	4	0	1	0	0	1
319.606745697439	2.51392818117142	punish_rtpj	322.12067387861	61	3	11	10	750	250	250	250	0	0	0	0	2000	0	BLOCKED	0.25	1	9	1	enthusiastic	At this moment	4	3	13	220	RTPJ	1352.5552893877	1	n/a	n/a	n/a	n/a	n/a	1	n/a	n/a	n/a	n/a	n/a	3	1	0	0	1	0	0
323.109092890143	2.51441197121142	punish_rtpj	325.623504861355	62	3	11	10	750	250	250	250	0	0	0	0	2000	0	BLOCKED	0.25	-1	8	-1	jittery	At this moment	1	3	13	220	RTPJ	157.76421302557	0.694132334581773	n/a	n/a	n/a	n/a	1912.04897959184	0	1349.44297162281	0.492071145087435	-5.20867746332234e-05	18.1154593500785	1722.571867794	1	2	0	0	1	0	0
326.630609381497	2.51234528505802	punish_rtpj	329.142954666555	63	3	11	10	750	250	250	250	0	0	0	0	2000	0	BLOCKED	0.25	1	1	-1	hostile	At this moment	5	3	13	220	RTPJ	1466.15673601627	0	161.818858248911	1.76143760647395	-0.000449902482308703	20.1742865921753	1857.25967540574	0.395080707148347	n/a	n/a	n/a	n/a	1780.32020330368	1	3	0	0	1	0	0
330.146137384355	2.55002519446612	punish_rtpj	332.696162578821	64	3	11	10	750	250	250	250	0	0	0	0	2000	0	BLOCKED	0.25	1	1	-1	strong	At this moment	5	3	13	220	RTPJ	539.821174025536	0.6541822721598	n/a	n/a	n/a	n/a	1861.08303249097	0	1363.22699430461	0.195520767015435	0.000141388043066287	26.3885234858626	1651.69869331284	1	4	0	0	1	0	0
333.70164294672	2.53060306966302	punish_rtpj	336.232246016383	65	3	11	10	750	250	250	250	0	0	0	0	2000	0	BLOCKED	0.25	1	2	-1	alert	At this moment	3	3	13	220	RTPJ	818.459904491901	0	4955.71403962719	-2.57386292145619	0.000541566348471272	21.5090405731373	1967.21223470662	0	1584.76358486187	0.676927948440044	-0.000218428537636626	42.8532352750014	1972.79169869331	0	5	0	0	1	0	0
337.237330395818	2.51430794924499	punish_rtpj	339.751638345063	66	3	11	10	750	250	250	250	0	0	0	0	2000	0	BLOCKED	0.25	-1	7	-1	afraid	At this moment	4	3	13	220	RTPJ	385.728405475616	0	2135.80375402642	-0.0222048643504019	-2.41423087860494e-05	20.1528517216599	1981.68164794007	0	1488.20853496959	0.508310820112896	-8.11999701774618e-05	36.6076588978362	1851.1621829362	0	6	0	0	1	0	0
340.756630691528	2.54792077833417	punish_rtpj	343.304551469862	67	3	11	10	750	250	250	250	0	0	0	0	2000	0	BLOCKED	0.25	1	10	1	nervous	At this moment	4	3	13	220	RTPJ	1178.36266690493	0	3862.28752850727	-1.63468354006755	0.000282931183648027	22.5539381174384	1692.58302122347	0	1557.04053965029	-0.0490557465836033	0.000179381100802486	21.8953583232293	1670.5526518063	0	7	0	0	1	0	0
344.309636554539	2.51456959080696	punish_rtpj	346.824206145346	68	3	11	10	750	250	250	250	0	0	0	0	2000	0	BLOCKED	0.25	-1	9	-1	enthusiastic	At this moment	4	3	13	220	RTPJ	768.909155666828	0	8974.53818871992	-6.26387665702916	0.0013464610915819	20.2511731312613	1818.93632958802	0	1466.37663698041	0.46411690512623	-3.48845665738741e-05	26.8565239271775	1830.82013835511	0	8	0	0	1	0	0
347.81259976846	6.03433604580164	panas_none	353.846935814261	69	5	12	10	n/a	n/a	n/a	n/a	n/a	n/a	n/a	n/a	2000	0	BLOCKED	n/a	n/a	+	0	jittery	At this moment	5	3	13	220	NONE	n/a	0	713.296495694827	0.363111990797554	-4.05396235083765e-05	15.756593649185	1295.24968789014	0	1307.15015810288	0.132065515713311	-5.00552455818183e-05	49.4030577882971	1380.35741737125	3	1	0	1	0	0	0
354.851527588248	6.00070100182296	panas_none	360.852228590071	70	5	12	10	n/a	n/a	n/a	n/a	n/a	n/a	n/a	n/a	2000	0	BLOCKED	n/a	n/a	+	0	hostile	At this moment	2	3	13	220	NONE	n/a	0.298377028714107	n/a	n/a	n/a	n/a	1581.07117437722	0.0468870099923136	1678.72620985624	0.150101210436097	-0.000207548830818571	20.6792675833002	1635.45080645161	3	2	0	1	0	0	0
361.841243876398	6.04990054446461	panas_none	367.891144420862	71	5	12	10	n/a	n/a	n/a	n/a	n/a	n/a	n/a	n/a	2000	0	BLOCKED	n/a	n/a	+	0	active	At this moment	3	3	13	220	NONE	n/a	0	4115.88606483398	-2.43473504311101	0.000578064270793806	34.5363607797677	1583.61797752809	0	1504.98756919845	0.243858303843549	-8.24663963602608e-05	50.4516269951744	1641.02152190623	4	3	0	1	0	0	0
368.896662871301	7.63487427985672	panas_none	376.531537151158	72	5	12	10	n/a	n/a	n/a	n/a	n/a	n/a	n/a	n/a	2000	0	BLOCKED	n/a	n/a	+	0	guilty	At this moment	2	3	13	220	NONE	n/a	0.0911360799001248	3219.08333632985	-1.12527149466009	0.000231611644412058	20.1267132768135	1883.90247252747	0.215987701767871	1591.93825820216	-0.169266103111475	0.000302907280869367	21.2091174997599	1650.87941176471	2	4	0	1	0	0	0
377.534089743078	2.51694975316525	reward_vlpfc	380.051039496243	73	2	13	10	0	0	0	0	250	250	250	750	2000	0	BLOCKED	0.75	1	6	1	interested	At this moment	1	3	13	220	VLPFC	622.402229070663	0.747815230961298	n/a	n/a	n/a	n/a	1770.26237623762	0	1085.55352719392	1.10732210344517	-0.00032493862199756	26.649700138764	1747.35818601076	1	1	1	0	0	0	0
381.040462407351	2.54678570538755	reward_vlpfc	383.587248112738	74	2	13	10	0	0	0	0	250	250	250	750	2000	0	BLOCKED	0.75	-1	7	-1	scared	At this moment	4	3	13	220	VLPFC	435.699473321438	0.64294631710362	n/a	n/a	n/a	n/a	1890.1013986014	0	1372.77940265323	0.450827355640337	-7.60156968800733e-05	20.5842332856316	1690.92621060723	1	2	1	0	0	0	0
384.592630100548	2.53071097034217	reward_vlpfc	387.12334107089	75	2	13	10	0	0	0	0	250	250	250	750	2000	0	BLOCKED	0.75	1	10	1	strong	At this moment	4	3	13	220	VLPFC	675.589160740376	0	5667.8439235684	-3.10549151257637	0.000584337898556229	28.2554661100071	1753.68289637953	0	1575.42000131045	0.195701253173946	6.2035218652108e-05	19.9935007537212	1794.85318985396	0	3	1	0	0	0	0
388.128541461229	2.53108262825015	reward_vlpfc	390.659624089479	76	2	13	10	0	0	0	0	250	250	250	750	2000	0	BLOCKED	0.75	-1	4	1	nervous	At this moment	1	3	13	220	VLPFC	602.321063756943	0.757802746566791	n/a	n/a	n/a	n/a	1673.31958762887	0	1531.47523660314	0.219737931622683	-6.37830444916402e-06	39.6134652616004	1713.5995388163	1	4	1	0	0	0	0
391.66438582468	2.54816408377889	reward_vlpfc	394.212549908459	77	2	13	10	0	0	0	0	250	250	250	750	2000	0	BLOCKED	0.75	1	9	1	irritable	At this moment	2	3	13	220	VLPFC	552.4762327075	0	5767.49933967999	-3.52174838522072	0.000730630017288806	18.0797779606549	1632.8152309613	0	1461.90328807061	0.492755036806247	-0.000159825587988193	17.6567706336501	1742.63643351268	0	5	1	0	0	0	0
395.217840568602	2.5308252181411	reward_vlpfc	397.748665786743	78	2	13	10	0	0	0	0	250	250	250	750	2000	0	BLOCKED	0.75	1	6	1	attentive	At this moment	5	3	13	220	VLPFC	1049.61457240582	0	4511.84616063989	-2.33870596508108	0.000460075588414101	33.3666928637881	1654.55930087391	0	1413.67173575148	0.408280767954405	-0.00011004144119072	22.961674751471	1665.86087624904	0	6	1	0	0	0	0
398.754013570786	2.53093100315334	reward_vlpfc	401.284944573939	79	2	13	10	0	0	0	0	250	250	250	750	2000	0	BLOCKED	0.75	1	9	1	afraid	At this moment	1	3	13	220	VLPFC	919.701079845428	0.617977528089888	n/a	n/a	n/a	n/a	1812.29411764706	0.401229823212913	n/a	n/a	n/a	n/a	1670.41848523748	3	7	1	0	0	0	0
402.291946482658	2.52940240997077	reward_vlpfc	404.821348892629	80	2	13	10	0	0	0	0	250	250	250	750	2000	0	BLOCKED	0.75	1	3	-1	alert	At this moment	5	3	13	220	VLPFC	600.371446371078	0.627965043695381	n/a	n/a	n/a	n/a	1712.27516778523	0	1407.1570048731	0.629553052023261	-0.000251892643822059	19.0987017669694	1724.50115295926	1	8	1	0	0	0	0
405.821950104058	6.00487950909138	panas_none	411.826829613149	81	5	14	10	n/a	n/a	n/a	n/a	n/a	n/a	n/a	n/a	2000	0	BLOCKED	n/a	n/a	+	0	distressed	At this moment	3	3	13	220	NONE	n/a	0	-643.157892014522	1.73373654683257	-0.000392510366025504	29.0543649535464	1245.71285892634	0	1047.34252640762	1.04508023201255	-0.000571995274034854	33.8368944942202	1453.88009223674	2	1	0	1	0	1	1
412.833182354629	6.03273833978176	panas_none	418.865920694411	82	5	14	10	n/a	n/a	n/a	n/a	n/a	n/a	n/a	n/a	2000	0	BLOCKED	n/a	n/a	+	0	irritable	At this moment	5	3	13	220	NONE	n/a	0	843.970257747135	0.501484469300019	-6.7776023462209e-05	17.9870046759257	1594.29088639201	0	1465.01821032003	0.15714952577565	1.51343975281734e-05	22.3069430183534	1612.38739431207	2	2	0	1	0	1	1
419.870739906132	6.05088222914935	panas_none	425.921622135282	83	5	14	10	n/a	n/a	n/a	n/a	n/a	n/a	n/a	n/a	2000	0	BLOCKED	n/a	n/a	+	0	proud	At this moment	3	3	13	220	NONE	n/a	0	5545.01595138823	-4.16134160023555	0.00101088112963291	19.8546130373441	1317.60923845193	0	1450.3450114146	-0.164332609715425	0.000136289294654362	19.7905195666729	1428.75096079938	3	3	0	1	0	1	1
426.91056478256	10.9874983294607	panas_none	437.898063112021	84	5	14	10	n/a	n/a	n/a	n/a	n/a	n/a	n/a	n/a	2000	0	BLOCKED	n/a	n/a	+	0	alert	At this moment	1	3	13	220	NONE	n/a	0.14856429463171	2328.60824420461	-0.68583966457131	0.000193366067094067	22.062792646844	1741.59090909091	0.404304381245196	n/a	n/a	n/a	n/a	1693.13677419355	6	4	0	1	0	1	1
438.886899269104	2.51397613698248	reward_rtpj	441.400875406086	85	1	15	10	750	250	250	250	0	0	0	0	2000	0	BLOCKED	0.75	1	1	-1	afraid	At this moment	5	3	13	220	RTPJ	669.414138019085	0.881398252184769	n/a	n/a	n/a	n/a	1773.68421052632	0	1234.62530504801	0.918953885225612	-0.000292652406615591	32.5246412807892	1761.84627209839	1	1	1	0	0	0	0
442.389637866259	2.54748423892261	reward_rtpj	444.937122105181	86	1	15	10	750	250	250	250	0	0	0	0	2000	0	BLOCKED	0.75	-1	9	-1	jittery	At this moment	2	3	13	220	RTPJ	768.749772965908	0.795255930087391	n/a	n/a	n/a	n/a	2006.80487804878	0	2021.26058940012	0.344366620184517	-0.000172302793399614	20.0002198200376	2165.59185242121	1	2	1	0	0	0	0
445.925412764192	2.54796943944694	reward_rtpj	448.473382203639	87	1	15	10	750	250	250	250	0	0	0	0	2000	0	BLOCKED	0.75	1	7	1	distressed	At this moment	5	3	13	220	RTPJ	1501.07918328047	0	5417.09321335916	-3.22890717536319	0.000622532385077979	30.8044093835665	1414.39575530587	0.72021521906226	n/a	n/a	n/a	n/a	1555.23626373626	3	3	1	0	0	0	0
449.478660169601	2.5310219782591	reward_rtpj	452.009682147861	88	1	15	10	750	250	250	250	0	0	0	0	2000	0	BLOCKED	0.75	-1	4	1	active	At this moment	3	3	13	220	RTPJ	542.027848958969	0	8959.67059753142	-6.81058495014365	0.00149036898942724	35.492882740484	1306.42571785268	0	1172.76587069519	0.0128318156631255	0.000180272492003774	26.0102060191418	1339.29362029208	0	4	1	0	0	0	0
453.015631848514	2.51328218746187	reward_rtpj	455.528914035976	89	1	15	10	750	250	250	250	0	0	0	0	2000	0	BLOCKED	0.75	1	7	1	enthusiastic	At this moment	2	3	13	220	RTPJ	568.040731430054	0.122347066167291	5166.39771232969	-3.31479382116422	0.000688465406573583	25.384236173903	1291.58890469417	0	1125.73716926196	0.34776024824351	-5.51277549190367e-05	41.9272377495133	1373.90622598002	1	5	1	0	0	0	0
456.517388055682	2.51443242293595	reward_rtpj	459.031820478618	90	1	15	10	750	250	250	250	0	0	0	0	2000	0	BLOCKED	0.75	-1	2	1	upset	At this moment	3	3	13	220	RTPJ	652.370765149593	0.706616729088639	n/a	n/a	n/a	n/a	1522.88510638298	0	1122.55908142415	0.231127380843212	1.69937165369244e-05	36.5103487209365	1333.87701767871	1	6	1	0	0	0	0
460.02062736851	2.51414080899951	reward_rtpj	462.534768177509	91	1	15	10	750	250	250	250	0	0	0	0	2000	0	BLOCKED	0.75	1	6	1	irritable	At this moment	5	3	13	220	RTPJ	452.793622970581	0.622971285892634	n/a	n/a	n/a	n/a	1289.18874172185	0	1105.64032924965	0.125027563522695	4.86101892439016e-05	35.6679871129913	1254.24827056111	1	7	1	0	0	0	0
463.523045789778	2.54796379750968	reward_rtpj	466.071009587288	92	1	15	10	750	250	250	250	0	0	0	0	2000	0	BLOCKED	0.75	-1	3	1	attentive	At this moment	3	3	13	220	RTPJ	402.292572319508	0.563046192259675	n/a	n/a	n/a	n/a	1455.59142857143	0	1248.4825865163	0.396212381622103	-0.000117004731480593	30.2817750318333	1483.43581860108	1	8	1	0	0	0	0
467.076677547276	6.01680606186392	panas_none	473.09348360914	93	5	16	10	n/a	n/a	n/a	n/a	n/a	n/a	n/a	n/a	2000	0	BLOCKED	n/a	n/a	+	0	hostile	At this moment	1	3	13	220	NONE	n/a	0.424469413233458	n/a	n/a	n/a	n/a	888.318872017354	0	1301.81613390195	-0.322335912872047	0.00017855584515386	31.7048241622804	1179.47348193697	3	1	0	1	0	1	0
474.081932945728	6.01701692664625	panas_none	480.098949872375	94	5	16	10	n/a	n/a	n/a	n/a	n/a	n/a	n/a	n/a	2000	0	BLOCKED	n/a	n/a	+	0	excited	At this moment	2	3	13	220	NONE	n/a	0	281.999867791785	0.0318690779233838	0.000181752869325621	36.7641692479991	1159.93882646692	0.34435049961568	n/a	n/a	n/a	n/a	1267.28253223916	10	2	0	1	0	1	0
481.099914631546	6.02140100938084	panas_none	487.121315640926	95	5	16	10	n/a	n/a	n/a	n/a	n/a	n/a	n/a	n/a	2000	0	BLOCKED	n/a	n/a	+	0	alert	At this moment	3	3	13	220	NONE	n/a	0.779026217228464	n/a	n/a	n/a	n/a	904.175141242938	0.854727132974635	n/a	n/a	n/a	n/a	1090.60317460317	20	3	0	1	0	1	0
488.126550940216	9.73683831930163	panas_none	497.863389259517	96	5	16	10	n/a	n/a	n/a	n/a	n/a	n/a	n/a	n/a	2000	0	BLOCKED	n/a	n/a	+	0	determined	At this moment	2	3	13	220	NONE	n/a	1	n/a	n/a	n/a	n/a	n/a	0.990776325903151	n/a	n/a	n/a	n/a	672.75	1	4	0	1	0	1	0
