onset	duration	trial_type	offset	trial	block	blockCntr	frequency	amplitude_1	amplitude_2	amplitude_3	amplitude_4	amplitude_5	amplitude_6	amplitude_7	amplitude_8	transition	sham	mode	rewardFraction	guess	outcome	correct	word	when	answer	runNr	scanNr	subjectNr	target	reactionTime	outcomeEyeClosed	outcomePupilArea	outcomeDilation	guessEyeClosed	guessPupilArea	guessDilation	nrBlinks	trialInBlock	isReward	isPanas	isPunish	beforePanasReward	beforePanasVLPFC
20.5673922694921	2.55083868104219	reward_vlpfc	23.1182309505343	1	2	1	10	0	0	0	0	250	250	250	750	2000	0	BLOCKED	0.75	1	6	1	n/a	n/a	n/a	1	7	220	VLPFC	690.999565839767	0.297128589263421	2286.97335701599	-0.934163701067616	0	2385.69946195234	0.23	1	1	1	0	0	0	0
24.1360433803201	2.53511656272411	reward_vlpfc	26.6711599430442	2	2	1	10	0	0	0	0	250	250	250	750	2000	0	BLOCKED	0.75	-1	1	1	n/a	n/a	n/a	1	7	220	VLPFC	1106.77126216888	0	2043.55555555556	-0.5675	0	1964.39123750961	0.425384615384615	0	2	1	0	0	0	0
27.6676866690516	2.55634091120958	reward_vlpfc	30.2240275802612	3	2	1	10	0	0	0	0	250	250	250	750	2000	0	BLOCKED	0.75	-1	10	-1	n/a	n/a	n/a	1	7	220	VLPFC	967.818089306355	0	2202.01872659176	-0.37	0	1908.68946963874	0.521538461538462	0	3	1	0	0	0	0
31.2188592780828	2.53033719676733	reward_vlpfc	33.7491964748502	4	2	1	10	0	0	0	0	250	250	250	750	2000	0	BLOCKED	0.75	1	3	-1	n/a	n/a	n/a	1	7	220	VLPFC	1233.30457162857	0	2088.35830212235	-0.62875	0	2077.83243658724	0.39	1	4	1	0	0	0	0
34.7496407718062	2.54678641057014	reward_vlpfc	37.2964271823764	5	2	1	10	0	0	0	0	250	250	250	750	2000	0	BLOCKED	0.75	1	7	1	n/a	n/a	n/a	1	7	220	VLPFC	1498.69020545483	0	1843.92509363296	-0.5675	0	1881.09377401998	0.300769230769231	0	5	1	0	0	0	0
38.2867704229355	2.5125392242074	reward_vlpfc	40.7993096471429	6	2	1	10	0	0	0	0	250	250	250	750	2000	0	BLOCKED	0.75	-1	4	1	n/a	n/a	n/a	1	7	220	VLPFC	500.680021226406	0	1914.28838951311	-0.6825	0	1892.34127594158	0.446923076923077	0	6	1	0	0	0	0
41.7886814288497	2.51344333326816	reward_vlpfc	44.3021247621179	7	2	1	10	0	0	0	0	250	250	250	750	2000	0	BLOCKED	0.75	1	7	1	n/a	n/a	n/a	1	7	220	VLPFC	885.293100297451	0	1864.31835205993	-0.775	0	2072.66333589547	0.251538461538462	0	7	1	0	0	0	0
45.2919912649989	2.5298244920969	reward_vlpfc	47.8218157570958	8	2	1	10	0	0	0	0	250	250	250	750	2000	0	BLOCKED	0.75	-1	4	1	n/a	n/a	n/a	1	7	220	VLPFC	618.270972430706	0	1993.49812734082	-0.84	0	2042.93774019985	0.343846153846154	0	8	1	0	0	0	0
48.8740153620839	6.03684667634964	panas_none	54.9108620384335	9	5	2	n/a	n/a	n/a	n/a	n/a	n/a	n/a	n/a	n/a	n/a	n/a	n/a	n/a	n/a	n/a	n/a	active	At this moment	3	1	7	220	NONE	n/a	0	1304.03870162297	0.27	0	1589.7240584166	-0.194615384615385	0	1	0	1	0	1	1
55.9175155618191	6.01567098897695	panas_none	61.933186550796	10	5	2	n/a	n/a	n/a	n/a	n/a	n/a	n/a	n/a	n/a	n/a	n/a	n/a	n/a	n/a	n/a	n/a	ashamed	At this moment	2	1	7	220	NONE	n/a	0	1964.14232209738	-0.2025	0	1888.17448116833	-0.462307692307692	3	2	0	1	0	1	1
62.9339510236383	6.03808224505186	panas_none	68.9720332686901	11	5	2	n/a	n/a	n/a	n/a	n/a	n/a	n/a	n/a	n/a	n/a	n/a	n/a	n/a	n/a	n/a	n/a	interested	At this moment	3	1	7	220	NONE	n/a	0	1842.16978776529	-0.455	0	1988.18677940046	0.0192307692307692	0	3	0	1	0	1	1
69.9781645668745	11.0704848937392	panas_none	81.0486494606137	12	5	2	n/a	n/a	n/a	n/a	n/a	n/a	n/a	n/a	n/a	n/a	n/a	n/a	n/a	n/a	n/a	n/a	n/a	n/a	n/a	1	7	220	NONE	n/a	0	2205.96878901373	0.04625	0	1845.64104534973	0.412307692307692	1	4	0	1	0	1	1
82.0364097842574	2.53174096357822	punish_vlpfc	84.5681507478356	13	4	3	10	0	0	0	0	250	250	250	750	2000	0	BLOCKED	0.25	-1	8	-1	n/a	n/a	n/a	1	7	220	VLPFC	1485.34190243483	0	1990.0911360799	-0.15875	0	1874.85626441199	0.4	0	1	0	0	1	0	0
85.5691789780259	2.51850761348008	punish_vlpfc	88.087686591506	14	4	3	10	0	0	0	0	250	250	250	750	2000	0	BLOCKED	0.25	-1	10	-1	n/a	n/a	n/a	1	7	220	VLPFC	1208.60483336449	0.122347066167291	1909.37980085348	-0.316239316239316	0.0707148347425058	1901.45492142266	0.225165562913907	2	2	0	0	1	0	0
89.0753986067176	2.51526107203961	punish_vlpfc	91.5906596787572	15	4	3	10	0	0	0	0	250	250	250	750	2000	0	BLOCKED	0.25	1	7	1	n/a	n/a	n/a	1	7	220	VLPFC	703.595385074615	0.419475655430712	1984.06451612903	1.70498915401302	0	1958.61798616449	0.389230769230769	1	3	0	0	1	0	0
92.5794341278672	2.51392536020279	punish_vlpfc	95.09335948807	16	4	3	10	0	0	0	0	250	250	250	750	2000	0	BLOCKED	0.25	1	0	-1	n/a	n/a	n/a	1	7	220	VLPFC	586.290758490562	0	2009.66167290886	-0.475	0	2038.22290545734	0.285384615384615	0	4	0	0	1	0	0
96.0977985790372	2.53211050581932	punish_vlpfc	98.6299090848565	17	4	3	10	0	0	0	0	250	250	250	750	2000	0	BLOCKED	0.25	-1	7	-1	n/a	n/a	n/a	1	7	220	VLPFC	1188.01131612062	0	2081.57927590512	-0.26375	0	1906.19754035357	0.376153846153846	0	5	0	0	1	0	0
99.6353577172756	2.53090032547712	punish_vlpfc	102.166258042753	18	4	3	10	0	0	0	0	250	250	250	750	2000	0	BLOCKED	0.25	-1	10	-1	n/a	n/a	n/a	1	7	220	VLPFC	451.242462396622	0	2216.48439450687	-0.38125	0	2043.16372021522	0.374615384615385	0	6	0	0	1	0	0
103.156008534729	2.54617849951983	punish_vlpfc	105.702187034249	19	4	3	10	0	0	0	0	250	250	250	750	2000	0	BLOCKED	0.25	1	7	1	n/a	n/a	n/a	1	7	220	VLPFC	1017.49754315615	0.374531835205993	2008.81636726547	-0.735470941883767	0	2052.42966948501	0.280769230769231	1	7	0	0	1	0	0
106.690724524915	2.51432170140743	punish_vlpfc	109.205046226323	20	4	3	10	0	0	0	0	250	250	250	750	2000	0	BLOCKED	0.25	-1	10	-1	n/a	n/a	n/a	1	7	220	VLPFC	1352.92377382517	0	2079.50312109863	-0.415	0	2149.85242121445	0.143846153846154	1	8	0	0	1	0	0
110.210219817698	6.05043158513307	panas_none	116.260651402831	21	5	4	n/a	n/a	n/a	n/a	n/a	n/a	n/a	n/a	n/a	n/a	n/a	n/a	n/a	n/a	n/a	n/a	excited	At this moment	2	1	7	220	NONE	n/a	0	1704.21098626717	-0.0925	0.106840891621829	1825.00946643718	0.928448275862069	1	1	0	1	0	0	1
117.266161743104	6.0167528167963	panas_none	123.282914559901	22	5	4	n/a	n/a	n/a	n/a	n/a	n/a	n/a	n/a	n/a	n/a	n/a	n/a	n/a	n/a	n/a	n/a	guilty	At this moment	1	1	7	220	NONE	n/a	0	1686.17602996255	-0.125	0.256725595695619	1827.66907962771	0.564449064449064	1	2	0	1	0	0	1
124.290459850907	6.03153309601547	panas_none	130.321992946923	23	5	4	n/a	n/a	n/a	n/a	n/a	n/a	n/a	n/a	n/a	n/a	n/a	n/a	n/a	n/a	n/a	n/a	afraid	At this moment	1	1	7	220	NONE	n/a	0	1848.47815230961	-0.245	0.234435049961568	1959.76204819277	1.00805639476334	3	3	0	1	0	0	1
131.326681690514	5.58409219372274	panas_none	136.910773884237	24	5	4	n/a	n/a	n/a	n/a	n/a	n/a	n/a	n/a	n/a	n/a	n/a	n/a	n/a	n/a	n/a	n/a	n/a	n/a	n/a	1	7	220	NONE	n/a	0.564294631710362	1886.66475644699	1.56521739130435	0	1868.02229054573	0.400769230769231	2	4	0	1	0	0	1
137.914691102564	2.51557666391133	reward_rtpj	140.430267766476	25	1	5	10	750	250	250	250	0	0	0	0	2000	0	BLOCKED	0.75	-1	0	1	n/a	n/a	n/a	1	7	220	RTPJ	1271.55148851871	0.411985018726592	2033.07643312102	-0.846481876332623	0	2026.68332052267	0.290769230769231	2	1	1	0	0	0	0
141.435490724266	2.53091901415587	reward_rtpj	143.966409738421	26	1	5	10	750	250	250	250	0	0	0	0	2000	0	BLOCKED	0.75	1	8	1	n/a	n/a	n/a	1	7	220	RTPJ	752.195479333401	0	1856.68414481898	-0.525	0	1828.43274404304	0.37	0	2	1	0	0	0	0
144.971876354277	2.51417324972152	reward_rtpj	147.486049603999	27	1	5	10	750	250	250	250	0	0	0	0	2000	0	BLOCKED	0.75	-1	9	-1	n/a	n/a	n/a	1	7	220	RTPJ	485.092602431774	0	2006.08489388265	-0.2675	0	1914.30822444274	0.256923076923077	0	3	1	0	0	0	0
148.476032822967	2.52961609572174	reward_rtpj	151.005648918688	28	1	5	10	750	250	250	250	0	0	0	0	2000	0	BLOCKED	0.75	-1	2	1	n/a	n/a	n/a	1	7	220	RTPJ	352.173758208752	0.0199750312109863	1926.52101910828	-0.857142857142857	0	2003.4096848578	0.439230769230769	1	4	1	0	0	0	0
152.012259775519	2.56279062223436	reward_rtpj	154.575050397754	29	1	5	10	750	250	250	250	0	0	0	0	2000	0	BLOCKED	0.75	1	2	-1	n/a	n/a	n/a	1	7	220	RTPJ	684.644708752632	0	2178.97752808989	-0.4325	0	1868.82475019216	0.366153846153846	0	5	1	0	0	0	0
155.56268730551	2.51521346890925	reward_rtpj	158.077900774419	30	1	5	10	750	250	250	250	0	0	0	0	2000	0	BLOCKED	0.75	1	7	1	n/a	n/a	n/a	1	7	220	RTPJ	1013.21995067596	0.470661672908864	1922.28301886792	1.01666666666667	0	2009.12298232129	0.323846153846154	1	6	1	0	0	0	0
159.064982663572	2.51608478462697	reward_rtpj	161.581067448199	31	1	5	10	750	250	250	250	0	0	0	0	2000	0	BLOCKED	0.75	1	7	1	n/a	n/a	n/a	1	7	220	RTPJ	538.846894264221	0.469413233458177	1856.78117647059	1.17730496453901	0	1914.55726364335	0.305384615384615	2	7	1	0	0	0	0
162.569480112612	2.53073530089856	reward_rtpj	165.100215413511	32	1	5	10	750	250	250	250	0	0	0	0	2000	0	BLOCKED	0.75	-1	0	1	n/a	n/a	n/a	1	7	220	RTPJ	1137.37697643042	0	1844.87390761548	-0.5825	0	1939.32590315142	0.281538461538462	0	8	1	0	0	0	0
166.10772015357	6.08162828493118	panas_none	172.189348438501	33	5	6	n/a	n/a	n/a	n/a	n/a	n/a	n/a	n/a	n/a	n/a	n/a	n/a	n/a	n/a	n/a	n/a	alert	At this moment	1	1	7	220	NONE	n/a	0	1454.36828963795	-0.0425	0.0768639508070715	1777.60366361366	0.351666666666667	4	1	0	1	0	1	0
173.194969147801	6.03347284024954	panas_none	179.228441988051	34	5	6	n/a	n/a	n/a	n/a	n/a	n/a	n/a	n/a	n/a	n/a	n/a	n/a	n/a	n/a	n/a	n/a	inspired	At this moment	1	1	7	220	NONE	n/a	0	1650.62047440699	-0.3025	0	2146.54650269024	0.0438461538461538	5	2	0	1	0	1	0
180.233831733465	6.05041042810677	panas_none	186.284242161572	35	5	6	n/a	n/a	n/a	n/a	n/a	n/a	n/a	n/a	n/a	n/a	n/a	n/a	n/a	n/a	n/a	n/a	excited	At this moment	1	1	7	220	NONE	n/a	0	1780.35205992509	-0.57125	0.444273635664873	1837.79944674965	0.342105263157895	5	3	0	1	0	1	0
187.286657938242	11.0906528027058	panas_none	198.377310740948	36	5	6	n/a	n/a	n/a	n/a	n/a	n/a	n/a	n/a	n/a	n/a	n/a	n/a	n/a	n/a	n/a	n/a	n/a	n/a	n/a	1	7	220	NONE	n/a	0.459425717852684	2120.75750577367	0.256944444444444	0.998462720983859	1869	0	39	4	0	1	0	1	0
199.361466617227	2.51864901286365	punish_vlpfc	201.88011563009	37	4	7	10	0	0	0	0	250	250	250	750	2000	0	BLOCKED	0.25	-1	6	-1	n/a	n/a	n/a	1	7	220	VLPFC	1471.82222765684	0.523096129837703	2024.20942408377	2.01846965699208	0.0184473481936972	1810.69303054033	0.737254901960784	3	1	0	0	1	0	0
202.880870582283	2.51869908434153	punish_vlpfc	205.399569666624	38	4	7	10	0	0	0	0	250	250	250	750	2000	0	BLOCKED	0.25	1	0	-1	n/a	n/a	n/a	1	7	220	VLPFC	791.088037490845	0	2036.72284644195	-0.18625	0	2033.25441967717	0.113846153846154	0	2	0	0	1	0	0
206.405842011511	2.53016229891776	punish_vlpfc	208.936004310429	39	4	7	10	0	0	0	0	250	250	250	750	2000	0	BLOCKED	0.25	-1	3	1	n/a	n/a	n/a	1	7	220	VLPFC	1484.14900028706	0.423220973782772	2148.91125541126	0.161220043572985	0	1916.06456571868	0.459230769230769	1	3	0	0	1	0	0
209.9389803949	2.51642400175331	punish_vlpfc	212.455404396653	40	4	7	10	0	0	0	0	250	250	250	750	2000	0	BLOCKED	0.25	1	1	-1	n/a	n/a	n/a	1	7	220	VLPFC	662.899545490742	0	2146.61672908864	-0.43875	0	2167.38585703305	0.235384615384615	0	4	0	0	1	0	0
213.456166048586	2.51871918350457	punish_vlpfc	215.974885232091	41	4	7	10	0	0	0	0	250	250	250	750	2000	0	BLOCKED	0.25	-1	0	1	n/a	n/a	n/a	1	7	220	VLPFC	1240.60620439053	0	1912.50187265918	-0.90375	0	2035.93389700231	0.283846153846154	0	5	0	0	1	0	0
216.963899813175	2.56383119392396	punish_vlpfc	219.527731007099	42	4	7	10	0	0	0	0	250	250	250	750	2000	0	BLOCKED	0.25	1	4	-1	n/a	n/a	n/a	1	7	220	VLPFC	432.07986342907	0	2042.24594257179	-0.41625	0	1925.85626441199	0.527692307692308	0	6	0	0	1	0	0
220.534258293867	2.52970707070827	punish_vlpfc	223.063965364575	43	4	7	10	0	0	0	0	250	250	250	750	2000	0	BLOCKED	0.25	-1	6	-1	n/a	n/a	n/a	1	7	220	VLPFC	417.65502166748	0.0711610486891386	1996.88306451613	-0.269179004037685	0	1891.4573405073	0.226923076923077	1	7	0	0	1	0	0
224.069503208995	2.53070673894882	punish_vlpfc	226.600209947944	44	4	7	10	0	0	0	0	250	250	250	750	2000	0	BLOCKED	0.25	-1	9	-1	n/a	n/a	n/a	1	7	220	VLPFC	1145.44449263811	0	2071.99001248439	-0.26875	0	1869.65257494235	0.376153846153846	0	8	0	0	1	0	0
227.605912817001	6.06668403887747	panas_none	233.672596855879	45	5	8	n/a	n/a	n/a	n/a	n/a	n/a	n/a	n/a	n/a	n/a	n/a	n/a	n/a	n/a	n/a	n/a	active	At this moment	1	1	7	220	NONE	n/a	0	1525.14606741573	0.0875	0.191391237509608	1600.70247148289	0.729781160799239	5	1	0	1	0	0	1
234.66087834692	6.05087059289218	panas_none	240.711748939812	46	5	8	n/a	n/a	n/a	n/a	n/a	n/a	n/a	n/a	n/a	n/a	n/a	n/a	n/a	n/a	n/a	n/a	determined	At this moment	2	1	7	220	NONE	n/a	0	1737.9950062422	-0.5125	0	2578.45119139124	-0.208461538461538	3	2	0	1	0	0	1
241.717374938369	6.05001161867378	panas_none	247.767386557043	47	5	8	n/a	n/a	n/a	n/a	n/a	n/a	n/a	n/a	n/a	n/a	n/a	n/a	n/a	n/a	n/a	n/a	hostile	At this moment	1	1	7	220	NONE	n/a	0	1631.80149812734	-0.285	0	1865.06917755573	-0.02	4	3	0	1	0	0	1
248.757549610555	12.1706149739623	panas_none	260.928164584518	48	5	8	n/a	n/a	n/a	n/a	n/a	n/a	n/a	n/a	n/a	n/a	n/a	n/a	n/a	n/a	n/a	n/a	n/a	n/a	n/a	1	7	220	NONE	n/a	0.782771535580524	1618.08620689655	0.506172839506173	0.525749423520369	1723.35170178282	1.32463295269168	6	4	0	1	0	0	1
261.934659077883	2.51302759826183	punish_rtpj	264.447686676145	49	3	9	10	750	250	250	250	0	0	0	0	2000	0	BLOCKED	0.25	-1	3	1	n/a	n/a	n/a	1	7	220	RTPJ	1467.88385230303	0.682896379525593	1437.01968503937	7.04090909090909	0.875480399692544	1418.66049382716	0.942028985507246	0	1	0	0	1	0	0
265.453346525908	2.5304934059381	punish_rtpj	267.983839931846	50	3	9	10	750	250	250	250	0	0	0	0	2000	0	BLOCKED	0.25	1	1	-1	n/a	n/a	n/a	1	7	220	RTPJ	1466.98362201452	0.792759051186018	1316.47590361446	5.08823529411765	0.880860876249039	1300.47741935484	-0.27906976744186	1	2	0	0	1	0	0
268.98941092217	2.51389115637545	punish_rtpj	271.503302078545	51	3	9	10	750	250	250	250	0	0	0	0	2000	0	BLOCKED	0.25	-1	7	-1	n/a	n/a	n/a	1	7	220	RTPJ	1036.66190516949	1	n/a	n/a	0.841660261337433	1382.17475728155	0.555555555555556	20	3	0	0	1	0	0
272.492687964976	2.53004593533274	punish_rtpj	275.022733900309	52	3	9	10	750	250	250	250	0	0	0	0	2000	0	BLOCKED	0.25	1	0	-1	n/a	n/a	n/a	1	7	220	RTPJ	852.52161449194	0.907615480649189	1616.24324324324	-1.47272727272727	0.594158339738663	1305.34848484848	0.138519924098672	16	4	0	0	1	0	0
276.015051441491	2.54399333417416	punish_rtpj	278.559044775665	53	3	9	10	750	250	250	250	0	0	0	0	2000	0	BLOCKED	0.25	1	8	1	n/a	n/a	n/a	1	7	220	RTPJ	407.904113650322	0.468164794007491	1408.15962441315	-0.2	0.940814757878555	1502.32467532468	2.14035087719298	9	5	0	0	1	0	0
279.565177836895	2.53004805111885	punish_rtpj	282.095225888014	54	3	9	10	750	250	250	250	0	0	0	0	2000	0	BLOCKED	0.25	-1	9	-1	n/a	n/a	n/a	1	7	220	RTPJ	557.968237042427	0	1583.38826466916	-0.24125	0	1606.54035357417	0.262307692307692	1	6	0	0	1	0	0
283.102492259204	2.51231637042764	punish_rtpj	285.614808629632	55	3	9	10	750	250	250	250	0	0	0	0	2000	0	BLOCKED	0.25	-1	6	-1	n/a	n/a	n/a	1	7	220	RTPJ	350.591919898987	0	1706.20973782772	-0.0475	0.331283627978478	1539.31494252874	0.246260069044879	6	7	0	0	1	0	0
286.620516435266	2.51402832430603	punish_rtpj	289.134544759572	56	3	9	10	750	250	250	250	0	0	0	0	2000	0	BLOCKED	0.25	1	0	-1	n/a	n/a	n/a	1	7	220	RTPJ	668.901080787182	0.208489388264669	1513.74921135647	-0.222748815165877	0.449654112221368	1522.08379888268	0.267132867132867	8	8	0	0	1	0	0
290.123329081953	6.03331134182213	panas_none	296.156640423775	57	5	10	n/a	n/a	n/a	n/a	n/a	n/a	n/a	n/a	n/a	n/a	n/a	n/a	n/a	n/a	n/a	n/a	excited	At this moment	1	1	7	220	NONE	n/a	0	1150.41947565543	0.37125	0.194465795541891	1287.78721374046	-0.0315186246418338	14	1	0	1	0	0	0
297.162957198322	6.01624751710892	panas_none	303.179204715431	58	5	10	n/a	n/a	n/a	n/a	n/a	n/a	n/a	n/a	n/a	n/a	n/a	n/a	n/a	n/a	n/a	n/a	irritable	At this moment	3	1	7	220	NONE	n/a	0	2224.75905118602	-0.3775	0	2277.99154496541	0.432307692307692	3	2	0	1	0	0	0
304.183962571859	6.05115797543527	panas_none	310.235120547295	59	5	10	n/a	n/a	n/a	n/a	n/a	n/a	n/a	n/a	n/a	n/a	n/a	n/a	n/a	n/a	n/a	n/a	attentive	At this moment	2	1	7	220	NONE	n/a	0.374531835205993	1698.9121756487	-0.00400801603206413	0	1846.77017678709	-0.0807692307692308	6	3	0	1	0	0	0
311.240377708852	5.13268047535422	panas_none	316.373058184207	60	5	10	n/a	n/a	n/a	n/a	n/a	n/a	n/a	n/a	n/a	n/a	n/a	n/a	n/a	n/a	n/a	n/a	n/a	n/a	n/a	1	7	220	NONE	n/a	0.595505617977528	2528.34567901235	0.476780185758514	0.436587240584166	2145.09959072306	1.08230452674897	10	4	0	1	0	0	0
317.378813945711	2.51389609301094	reward_rtpj	319.892710038722	61	1	11	10	750	250	250	250	0	0	0	0	2000	0	BLOCKED	0.75	1	6	1	n/a	n/a	n/a	1	7	220	RTPJ	587.893401145935	0.548064918851436	2259.75966850829	-1.85318559556787	0	2082.45042275173	0.635384615384615	2	1	1	0	0	0	0
320.897100116014	2.51523392057419	reward_rtpj	323.412334036589	62	1	11	10	750	250	250	250	0	0	0	0	2000	0	BLOCKED	0.75	-1	1	1	n/a	n/a	n/a	1	7	220	RTPJ	552.848595917225	0.434456928838951	2182.01545253863	-1.10421286031042	0	2028.69408147579	0.473846153846154	2	2	1	0	0	0	0
324.400897620916	2.51402127194405	reward_rtpj	326.91491889286	63	1	11	10	750	250	250	250	0	0	0	0	2000	0	BLOCKED	0.75	1	9	1	n/a	n/a	n/a	1	7	220	RTPJ	719.702560782433	0.504369538077403	2057.29974811083	-0.825316455696202	0	2051.70099923136	0.294615384615385	3	3	1	0	0	0	0
327.917561402023	2.53390885072946	reward_rtpj	330.451470252752	64	1	11	10	750	250	250	250	0	0	0	0	2000	0	BLOCKED	0.75	-1	1	1	n/a	n/a	n/a	1	7	220	RTPJ	704.874325692654	0.975031210986267	1725.5	-1.15789473684211	0.436587240584166	2082.82401091405	0.117231638418079	11	4	1	0	0	0	0
331.440930893838	2.54653887373206	reward_rtpj	333.98746976757	65	1	11	10	750	250	250	250	0	0	0	0	2000	0	BLOCKED	0.75	1	0	-1	n/a	n/a	n/a	1	7	220	RTPJ	618.618652522564	0	1638.74032459426	-0.2425	0	1428.34204458109	0.290769230769231	0	5	1	0	0	0	0
334.977329570651	2.51290453505516	reward_rtpj	337.490234105706	66	1	11	10	750	250	250	250	0	0	0	0	2000	0	BLOCKED	0.75	1	10	1	n/a	n/a	n/a	1	7	220	RTPJ	367.3398001194	0.470661672908864	1633.55188679245	-0.177304964539007	0.406610299769408	1713.35880829016	0.476005188067445	9	6	1	0	0	0	0
338.495708831727	2.53090420430902	reward_rtpj	341.026613036037	67	1	11	10	750	250	250	250	0	0	0	0	2000	0	BLOCKED	0.75	-1	4	1	n/a	n/a	n/a	1	7	220	RTPJ	602.108083367348	0.177278401997503	1699.50986342944	-0.371695178849145	0.4304381245196	1752.30634278003	0.193243243243243	5	7	1	0	0	0	0
342.032309205294	2.53048635357618	reward_rtpj	344.56279555887	68	1	11	10	750	250	250	250	0	0	0	0	2000	0	BLOCKED	0.75	1	2	-1	n/a	n/a	n/a	1	7	220	RTPJ	552.116916418076	0.667915106117353	1887.27819548872	1.67058823529412	0.229823212913144	1520.56487025948	0.346653346653347	5	8	1	0	0	0	0
345.580286402285	6.05471235126259	panas_none	351.634998753548	69	5	12	n/a	n/a	n/a	n/a	n/a	n/a	n/a	n/a	n/a	n/a	n/a	n/a	n/a	n/a	n/a	n/a	active	At this moment	2	1	7	220	NONE	n/a	0	2245.68664169788	0.59	0.274404304381245	2045.41419491525	0.384451544195953	2	1	0	1	0	1	0
352.638984026849	6.01858219194418	panas_none	358.657566218793	70	5	12	n/a	n/a	n/a	n/a	n/a	n/a	n/a	n/a	n/a	n/a	n/a	n/a	n/a	n/a	n/a	n/a	determined	At this moment	2	1	7	220	NONE	n/a	0.375780274656679	2023.148	0.064128256513026	0.531898539584935	1887.23316912972	0.265339966832504	10	2	0	1	0	1	0
359.661286677003	6.05176659178733	panas_none	365.71305326879	71	5	12	n/a	n/a	n/a	n/a	n/a	n/a	n/a	n/a	n/a	n/a	n/a	n/a	n/a	n/a	n/a	n/a	hostile	At this moment	2	1	7	220	NONE	n/a	0	1646.12484394507	-0.00875	0	1820.46733282091	-0.266923076923077	8	3	0	1	0	1	0
366.719173988461	9.26907964587213	panas_none	375.988253634334	72	5	12	n/a	n/a	n/a	n/a	n/a	n/a	n/a	n/a	n/a	n/a	n/a	n/a	n/a	n/a	n/a	n/a	n/a	n/a	n/a	1	7	220	NONE	n/a	0.685393258426966	2810.75396825397	0.678714859437751	0.340507302075327	2507.72727272727	0.35906432748538	4	4	0	1	0	1	0
376.994132811666	2.53020214450362	reward_vlpfc	379.524334956169	73	2	13	10	0	0	0	0	250	250	250	750	2000	0	BLOCKED	0.75	-1	7	-1	n/a	n/a	n/a	1	7	220	VLPFC	919.057907044888	0.651685393258427	2767.16129032258	0.399280575539568	0	2283.35972328978	0.635384615384615	2	1	1	0	0	0	0
380.513234584212	2.53064608889821	reward_vlpfc	383.04388067311	74	2	13	10	0	0	0	0	250	250	250	750	2000	0	BLOCKED	0.75	-1	3	1	n/a	n/a	n/a	1	7	220	VLPFC	652.453982651234	0.586766541822722	2273.57401812689	1.41717791411043	0	2387.22213681783	0.400769230769231	1	2	1	0	0	0	0
384.047404018641	2.53269479161503	reward_vlpfc	386.580098810256	75	2	13	10	0	0	0	0	250	250	250	750	2000	0	BLOCKED	0.75	1	7	1	n/a	n/a	n/a	1	7	220	VLPFC	903.828394174576	0	2453.53558052434	-0.7325	0	2460.84473481937	0.324615384615385	0	3	1	0	0	0	0
387.58092146486	2.56901924264429	reward_vlpfc	390.149940707505	76	2	13	10	0	0	0	0	250	250	250	750	2000	0	BLOCKED	0.75	-1	4	1	n/a	n/a	n/a	1	7	220	VLPFC	641.314470231533	0	2143.51061173533	-0.9425	0	2300.18831667948	0.368461538461538	2	4	1	0	0	0	0
391.150470337689	2.55205767685175	reward_vlpfc	393.702528014541	77	2	13	10	0	0	0	0	250	250	250	750	2000	0	BLOCKED	0.75	-1	4	1	n/a	n/a	n/a	1	7	220	VLPFC	990.448672950268	0	2229.72284644195	-0.89375	0	2437.01844734819	0.34	0	5	1	0	0	0	0
394.691978782356	2.51356251770261	reward_vlpfc	397.205541300058	78	2	13	10	0	0	0	0	250	250	250	750	2000	0	BLOCKED	0.75	-1	10	-1	n/a	n/a	n/a	1	7	220	VLPFC	963.960110604763	0	2521.92634207241	-0.295	0	2429.38816295158	0.255384615384615	0	6	1	0	0	0	0
398.195346094966	2.51289007782935	reward_vlpfc	400.708236172795	79	2	13	10	0	0	0	0	250	250	250	750	2000	0	BLOCKED	0.75	1	6	1	n/a	n/a	n/a	1	7	220	VLPFC	334.101449966431	0.616729088639201	2514.41042345277	1.68211920529801	0	2404.99923136049	0.551538461538462	2	7	1	0	0	0	0
401.697446103394	2.51386753112075	reward_vlpfc	404.211313634515	80	2	13	10	0	0	0	0	250	250	250	750	2000	0	BLOCKED	0.75	1	6	1	n/a	n/a	n/a	1	7	220	VLPFC	1218.91604942083	0.617977528089888	2233.89869281046	0.0822368421052632	0	2257.75480399693	0.537692307692308	2	8	1	0	0	0	0
405.217291191876	6.03281838375329	panas_none	411.250109575629	81	5	14	n/a	n/a	n/a	n/a	n/a	n/a	n/a	n/a	n/a	n/a	n/a	n/a	n/a	n/a	n/a	n/a	upset	At this moment	1	1	7	220	NONE	n/a	0.802746566791511	1883.70253164557	0.624203821656051	0.109146810146042	2212.76013805004	0.0509499136442142	17	1	0	1	0	1	1
412.255482748091	6.01702503681184	panas_none	418.272507784903	82	5	14	n/a	n/a	n/a	n/a	n/a	n/a	n/a	n/a	n/a	n/a	n/a	n/a	n/a	n/a	n/a	n/a	attentive	At this moment	2	1	7	220	NONE	n/a	0.488139825218477	1845.6	0.674074074074074	1	n/a	n/a	34	2	0	1	0	1	1
419.256656256259	6.05489923804998	panas_none	425.311555494308	83	5	14	n/a	n/a	n/a	n/a	n/a	n/a	n/a	n/a	n/a	n/a	n/a	n/a	n/a	n/a	n/a	n/a	ashamed	At this moment	1	1	7	220	NONE	n/a	1	n/a	n/a	0.458877786318217	1704.078125	0.130867709815078	44	3	0	1	0	1	1
426.312546347082	5.37111174029116	panas_none	431.683658087373	84	5	14	n/a	n/a	n/a	n/a	n/a	n/a	n/a	n/a	n/a	n/a	n/a	n/a	n/a	n/a	n/a	n/a	n/a	n/a	n/a	1	7	220	NONE	n/a	0	2597.31960049938	0.0875	0.432744043043812	2266.46341463415	1.06948228882834	2	4	0	1	0	1	1
432.685497335851	2.51741309142113	punish_rtpj	435.202910427272	85	3	15	10	750	250	250	250	0	0	0	0	2000	0	BLOCKED	0.25	1	4	-1	n/a	n/a	n/a	1	7	220	RTPJ	789.460711598396	0.525593008739076	2671.57631578947	-0.343915343915344	0	2382.83089930822	0.541538461538462	2	1	0	0	1	0	0
436.192005757511	2.51385659998652	punish_rtpj	438.705862357497	86	3	15	10	750	250	250	250	0	0	0	0	2000	0	BLOCKED	0.25	1	10	1	n/a	n/a	n/a	1	7	220	RTPJ	426.817765295506	0.635455680399501	2344.97945205479	1.48601398601399	0	2515.76018447348	0.24	1	2	0	0	1	0	0
439.695340276837	2.53001984173062	punish_rtpj	442.225360118568	87	3	15	10	750	250	250	250	0	0	0	0	2000	0	BLOCKED	0.25	-1	1	1	n/a	n/a	n/a	1	7	220	RTPJ	477.650628149509	0	2322.59176029963	-0.6	0	2311.73097617218	0.506153846153846	0	3	0	0	1	0	0
443.230780189037	2.54730898845196	punish_rtpj	445.778089177489	88	3	15	10	750	250	250	250	0	0	0	0	2000	0	BLOCKED	0.25	1	2	-1	n/a	n/a	n/a	1	7	220	RTPJ	1102.36284887791	0	2374.83146067416	-0.7175	0	2567.6287471176	0.362307692307692	0	4	0	0	1	0	0
446.781203135073	2.5165431861281	punish_rtpj	449.297746321201	89	3	15	10	750	250	250	250	0	0	0	0	2000	0	BLOCKED	0.25	-1	9	-1	n/a	n/a	n/a	1	7	220	RTPJ	338.112464249134	0	2604.61672908864	-0.44125	0	2448.58416602613	0.332307692307692	0	5	0	0	1	0	0
450.302118415058	2.53171804350615	punish_rtpj	452.833836458564	90	3	15	10	750	250	250	250	0	0	0	0	2000	0	BLOCKED	0.25	1	1	-1	n/a	n/a	n/a	1	7	220	RTPJ	1187.96935474873	0	2423.95880149813	-0.08875	0	1997.91314373559	0.719230769230769	0	6	0	0	1	0	0
453.839433189929	2.51411401009562	punish_rtpj	456.353547200024	91	3	15	10	750	250	250	250	0	0	0	0	2000	0	BLOCKED	0.25	1	4	-1	n/a	n/a	n/a	1	7	220	RTPJ	1336.57293999195	0	2585.27715355805	-0.00375	0	2330.36433512683	0.34	2	7	0	0	1	0	0
457.360072018445	2.5296206796765	punish_rtpj	459.889692698121	92	3	15	10	750	250	250	250	0	0	0	0	2000	0	BLOCKED	0.25	-1	8	-1	n/a	n/a	n/a	1	7	220	RTPJ	609.042994916439	0	2266.83021223471	-0.6625	0	2071.81398923905	0.467692307692308	0	8	0	0	1	0	0
460.895309176028	6.0333638817072	panas_none	466.928673057735	93	5	16	n/a	n/a	n/a	n/a	n/a	n/a	n/a	n/a	n/a	n/a	n/a	n/a	n/a	n/a	n/a	n/a	excited	At this moment	1	1	7	220	NONE	n/a	0	1545.82896379526	0.39625	0.362029208301307	1858.21686746988	0.854368932038835	9	1	0	1	0	0	0
467.934262736797	6.05028489661214	panas_none	473.984547633409	94	5	16	n/a	n/a	n/a	n/a	n/a	n/a	n/a	n/a	n/a	n/a	n/a	n/a	n/a	n/a	n/a	n/a	interested	At this moment	2	1	7	220	NONE	n/a	0	2203.80649188514	-0.38875	0.431975403535742	2320.47090663058	0.206241519674356	10	2	0	1	0	0	0
474.972644000709	6.0177676475048	panas_none	480.990411648214	95	5	16	n/a	n/a	n/a	n/a	n/a	n/a	n/a	n/a	n/a	n/a	n/a	n/a	n/a	n/a	n/a	n/a	proud	At this moment	2	1	7	220	NONE	n/a	0	1951.28464419476	0.12125	0	2034.25980015373	-0.260769230769231	20	3	0	1	0	0	0
481.997735143304	13.3706914212704	panas_none	495.368426564574	96	5	16	n/a	n/a	n/a	n/a	n/a	n/a	n/a	n/a	n/a	n/a	n/a	n/a	n/a	n/a	n/a	n/a	n/a	n/a	n/a	1	7	220	NONE	n/a	0	2779.01248439451	0.34125	0.00922367409684858	2393.70054305663	0.825174825174825	8	4	0	1	0	0	0
