onset	duration	trial_type	offset	trial	block	blockCntr	frequency	amplitude_1	amplitude_2	amplitude_3	amplitude_4	amplitude_5	amplitude_6	amplitude_7	amplitude_8	transition	sham	mode	rewardFraction	guess	outcome	correct	word	when	answer	runNr	scanNr	subjectNr	target	reactionTime	outcomeEyeClosed	outcomeParms_1	outcomeParms_2	outcomeParms_3	outcomeSigma	outcomePupilArea	guessEyeClosed	guessParms_1	guessParms_2	guessParms_3	guessSigma	guessPupilArea	nrBlinks	trialInBlock	isReward	isPanas	isPunish	beforePanasReward	beforePanasVLPFC
20.5673922694921	2.55083868104219	reward_vlpfc	23.1182309505343	1	2	1	10	0	0	0	0	250	250	250	750	2000	0	BLOCKED	0.75	1	6	1	distressed	At this moment	5	1	7	220	VLPFC	690.999565839767	0.470661672908864	n/a	n/a	n/a	n/a	2284.48113207547	0	2104.99784710453	0.489578884105578	-0.000140065108748481	36.0582600227249	2401.55572636433	1	1	1	0	0	0	0
24.1360433803201	2.53511656272411	reward_vlpfc	26.6711599430442	2	2	1	10	0	0	0	0	250	250	250	750	2000	0	BLOCKED	0.75	-1	1	1	inspired	At this moment	3	1	7	220	VLPFC	1106.77126216888	0	5590.49582535231	-2.74365170414695	0.000493654562966749	30.9939306954888	2031.35830212235	0	1543.57214219287	0.455241400066976	4.79695418492829e-05	34.8592521889994	1973.14219830899	0	2	1	0	0	0	0
27.6676866690516	2.55634091120958	reward_vlpfc	30.2240275802612	3	2	1	10	0	0	0	0	250	250	250	750	2000	0	BLOCKED	0.75	-1	10	-1	upset	At this moment	3	1	7	220	VLPFC	967.818089306355	0	-3001.20531730316	5.44740855431161	-0.00139860369228314	38.9071116024661	2197.75405742821	0	1360.95913640217	0.697720929584694	-4.70613658706783e-05	27.576562890325	1915.34896233666	0	3	1	0	0	0	0
31.2188592780828	2.53033719676733	reward_vlpfc	33.7491964748502	4	2	1	10	0	0	0	0	250	250	250	750	2000	0	BLOCKED	0.75	1	3	-1	alert	At this moment	5	1	7	220	VLPFC	1233.30457162857	0	4500.00438483041	-1.58429495681573	0.000202182937214457	27.6175072694896	2075.26092384519	0	1765.5651415817	0.287130905248107	8.75125315769618e-05	39.5831175593418	2086.2290545734	1	4	1	0	0	0	0
34.7496407718062	2.54678641057014	reward_vlpfc	37.2964271823764	5	2	1	10	0	0	0	0	250	250	250	750	2000	0	BLOCKED	0.75	1	7	1	guilty	At this moment	4	1	7	220	VLPFC	1498.69020545483	0	5279.14543135626	-2.37506819541069	0.000348169397735613	67.8731750463784	1838.17353308365	0	1567.77266748878	0.378888362529673	-6.79455544460602e-06	29.9580653510998	1884.095311299	0	5	1	0	0	0	0
38.2867704229355	2.5125392242074	reward_vlpfc	40.7993096471429	6	2	1	10	0	0	0	0	250	250	250	750	2000	0	BLOCKED	0.75	-1	4	1	irritable	At this moment	3	1	7	220	VLPFC	500.680021226406	0	11079.3895806052	-7.81735818148952	0.00162541125396452	20.7265416867148	1904.3620474407	0	1505.87774183658	0.418659709794671	4.32049178981419e-05	22.7425309089701	1898.19677171407	0	6	1	0	0	0	0
41.7886814288497	2.51344333326816	reward_vlpfc	44.3021247621179	7	2	1	10	0	0	0	0	250	250	250	750	2000	0	BLOCKED	0.75	1	7	1	afraid	At this moment	5	1	7	220	VLPFC	885.293100297451	0	10357.9500313842	-7.18790083049043	0.00148004867130444	22.4066400979429	1856.40074906367	0	1732.09070570268	0.545596103344577	-0.000138232182179006	38.0556588490258	2075.56264411991	0	7	1	0	0	0	0
45.2919912649989	2.5298244920969	reward_vlpfc	47.8218157570958	8	2	1	10	0	0	0	0	250	250	250	750	2000	0	BLOCKED	0.75	-1	4	1	enthusiastic	At this moment	1	1	7	220	VLPFC	618.270972430706	0	10045.4102737007	-6.62261617844549	0.00131302424547624	26.986172544703	1986.98002496879	0	1731.10574999988	0.301343165118961	6.7482405242435e-05	33.9778885571138	2045.86395080707	0	8	1	0	0	0	0
48.8740153620839	6.03684667634964	panas_none	54.9108620384335	9	5	2	10	n/a	n/a	n/a	n/a	n/a	n/a	n/a	n/a	2000	0	BLOCKED	n/a	n/a	+	0	active	At this moment	3	1	7	220	NONE	n/a	0	5602.04688320613	-4.42757262469801	0.00112121269079563	16.8626488326541	1308.80399500624	0	1250.56278887206	0.941274378650938	-0.000539363388003352	73.0153624589588	1586.39584934666	0	1	0	1	0	1	1
55.9175155618191	6.01567098897695	panas_none	61.933186550796	10	5	2	10	n/a	n/a	n/a	n/a	n/a	n/a	n/a	n/a	2000	0	BLOCKED	n/a	n/a	+	0	ashamed	At this moment	2	1	7	220	NONE	n/a	0	-807.688266536495	2.71218141697216	-0.000657814897834142	26.5415594324463	1961.40574282147	0	1757.32554005835	0.655289574902838	-0.000498180241851352	81.6983607393345	1882.94158339739	3	2	0	1	0	1	1
62.9339510236383	6.03808224505186	panas_none	68.9720332686901	11	5	2	10	n/a	n/a	n/a	n/a	n/a	n/a	n/a	n/a	2000	0	BLOCKED	n/a	n/a	+	0	interested	At this moment	3	1	7	220	NONE	n/a	0	5274.26637258785	-2.89345715053987	0.00059171656633453	23.8780150558323	1837.99625468165	0	2252.10501745936	-0.920490661399005	0.000600950951727888	31.8801662833474	1988.47348193697	0	3	0	1	0	1	1
69.9781645668745	11.0704848937392	panas_none	81.0486494606137	12	5	2	10	n/a	n/a	n/a	n/a	n/a	n/a	n/a	n/a	2000	0	BLOCKED	n/a	n/a	+	0	inspired	At this moment	5	1	7	220	NONE	n/a	0	1836.45402693772	0.243323523831882	-3.17127484419132e-05	29.1988577845059	2206.54556803995	0	1393.55423032943	0.532042499012981	-1.61570879264274e-05	23.4906924318027	1849.26287471176	1	4	0	1	0	1	1
82.0364097842574	2.53174096357822	punish_vlpfc	84.5681507478356	13	4	3	10	0	0	0	0	250	250	250	750	2000	0	BLOCKED	0.25	-1	8	-1	jittery	At this moment	1	1	7	220	VLPFC	1485.34190243483	0	3291.8488565456	-1.00205424035036	0.000179715544391627	32.839154302374	1988.6404494382	0	1280.76964418878	1.05307486574145	-0.000346698261230648	27.5368302141963	1877.57263643351	0	1	0	0	1	0	0
85.5691789780259	2.51850761348008	punish_vlpfc	88.087686591506	14	4	3	10	0	0	0	0	250	250	250	750	2000	0	BLOCKED	0.25	-1	10	-1	excited	At this moment	2	1	7	220	VLPFC	1208.60483336449	0.139825218476904	2044.09255504369	0.271062337836712	-0.000163506185744721	19.8306157332311	1908.78374455733	0.0599538816295158	1255.25620678533	1.09747304565552	-0.000374603346293155	26.3336881416694	1901.76941946034	2	2	0	0	1	0	0
89.0753986067176	2.51526107203961	punish_vlpfc	91.5906596787572	15	4	3	10	0	0	0	0	250	250	250	750	2000	0	BLOCKED	0.25	1	7	1	afraid	At this moment	3	1	7	220	VLPFC	703.595385074615	0.426966292134831	n/a	n/a	n/a	n/a	1974.30718954248	0	1518.83574141667	0.614838861577071	-9.20241336577435e-05	36.5857242254291	1962.03458877786	1	3	0	0	1	0	0
92.5794341278672	2.51392536020279	punish_vlpfc	95.09335948807	16	4	3	10	0	0	0	0	250	250	250	750	2000	0	BLOCKED	0.25	1	0	-1	active	At this moment	2	1	7	220	VLPFC	586.290758490562	0	4944.45086366894	-2.34186307484277	0.000442225124649147	42.6747868521313	2006.30461922597	0	1668.30016283247	0.592686070536811	-0.000153538419239255	30.5378273378892	2040.45042275173	0	4	0	0	1	0	0
96.0977985790372	2.53211050581932	punish_vlpfc	98.6299090848565	17	4	3	10	0	0	0	0	250	250	250	750	2000	0	BLOCKED	0.25	-1	7	-1	determined	At this moment	5	1	7	220	VLPFC	1188.01131612062	0	2554.63113375008	-0.176909416469329	-2.3087070074299e-05	23.2750666424162	2079.82896379526	0	1627.71390196971	0.22996766379645	9.924098605666e-05	21.0731903682781	1908.6471944658	0	5	0	0	1	0	0
99.6353577172756	2.53090032547712	punish_vlpfc	102.166258042753	18	4	3	10	0	0	0	0	250	250	250	750	2000	0	BLOCKED	0.25	-1	10	-1	guilty	At this moment	2	1	7	220	VLPFC	451.242462396622	0	3118.79238116312	-0.464563754168346	1.58860066374544e-05	31.5284107080603	2213.78401997503	0	1756.23027267101	0.238573315608765	9.88845661031398e-05	31.9240254949481	2045.77401998463	0	6	0	0	1	0	0
103.156008534729	2.54617849951983	punish_vlpfc	105.702187034249	19	4	3	10	0	0	0	0	250	250	250	750	2000	0	BLOCKED	0.25	1	7	1	alert	At this moment	4	1	7	220	VLPFC	1017.49754315615	0.374531835205993	n/a	n/a	n/a	n/a	2002.7005988024	0	1696.56488765924	0.492548070700902	-6.93876564852262e-05	50.8882898486028	2054.37048424289	1	7	0	0	1	0	0
106.690724524915	2.51432170140743	punish_vlpfc	109.205046226323	20	4	3	10	0	0	0	0	250	250	250	750	2000	0	BLOCKED	0.25	-1	10	-1	jittery	At this moment	4	1	7	220	VLPFC	1352.92377382517	0	4675.46327297264	-1.88053244549262	0.000303223417446024	27.1228541391599	2075.51310861423	0	1932.68856623164	0.328674734259914	-7.01052561090908e-05	33.0665408091984	2151.10069177556	1	8	0	0	1	0	0
110.210219817698	6.05043158513307	panas_none	116.260651402831	21	5	4	10	n/a	n/a	n/a	n/a	n/a	n/a	n/a	n/a	2000	0	BLOCKED	n/a	n/a	+	0	excited	At this moment	2	1	7	220	NONE	n/a	0	4476.03921990375	-2.57419801804795	0.000589954227178335	13.6755072093898	1703.12484394507	0.0991544965411222	830.819269334136	2.02263489092909	-0.000898056050063198	24.6410043413609	1825.64590443686	1	1	0	1	0	0	1
117.266161743104	6.0167528167963	panas_none	123.282914559901	22	5	4	10	n/a	n/a	n/a	n/a	n/a	n/a	n/a	n/a	2000	0	BLOCKED	n/a	n/a	+	0	guilty	At this moment	1	1	7	220	NONE	n/a	0	3475.43700477409	-1.75727790276218	0.000424292280127162	22.9565498784343	1685.48439450687	0.262874711760184	n/a	n/a	n/a	n/a	1830.16892596455	1	2	0	1	0	0	1
124.290459850907	6.03153309601547	panas_none	130.321992946923	23	5	4	10	n/a	n/a	n/a	n/a	n/a	n/a	n/a	n/a	2000	0	BLOCKED	n/a	n/a	+	0	afraid	At this moment	1	1	7	220	NONE	n/a	0	3338.72805131842	-1.05538449398449	0.000162323338467848	30.9587465429051	1846.65293383271	0.240584166026134	1472.44860757455	0.701590057441615	-0.000124308417389102	47.9588026394649	1965.57085020243	3	3	0	1	0	0	1
131.326681690514	5.58409219372274	panas_none	136.910773884237	24	5	4	10	n/a	n/a	n/a	n/a	n/a	n/a	n/a	n/a	2000	0	BLOCKED	n/a	n/a	+	0	alert	At this moment	2	1	7	220	NONE	n/a	0.573033707865168	n/a	n/a	n/a	n/a	1884.13742690058	0	1439.45230342967	0.663355302604718	-0.000154210963492745	22.9761155359596	1870.62951575711	2	4	0	1	0	0	1
137.914691102564	2.51557666391133	reward_rtpj	140.430267766476	25	1	5	10	750	250	250	250	0	0	0	0	2000	0	BLOCKED	0.75	-1	0	1	active	At this moment	3	1	7	220	RTPJ	1271.55148851871	0.411985018726592	n/a	n/a	n/a	n/a	2024.3949044586	0	1710.06800906984	0.49013746907785	-0.00011371282617017	23.808911266998	2028.75864719447	2	1	1	0	0	0	0
141.435490724266	2.53091901415587	reward_rtpj	143.966409738421	26	1	5	10	750	250	250	250	0	0	0	0	2000	0	BLOCKED	0.75	1	8	1	distressed	At this moment	2	1	7	220	RTPJ	752.195479333401	0	5741.63744981592	-3.05455473754125	0.000566524621300625	32.291486171554	1852.96504369538	0	1458.08161126952	0.495956747892026	-5.67762338624278e-05	29.0355419896272	1830.83551114527	0	2	1	0	0	0	0
144.971876354277	2.51417324972152	reward_rtpj	147.486049603999	27	1	5	10	750	250	250	250	0	0	0	0	2000	0	BLOCKED	0.75	-1	9	-1	proud	At this moment	2	1	7	220	RTPJ	485.092602431774	0	4349.29859093142	-1.97952563304599	0.000406061351025398	28.3481672747779	2004.4606741573	0	1606.16493451021	0.359687578209287	6.07722788754432e-06	47.4223735796374	1916.40276710223	0	3	1	0	0	0	0
148.476032822967	2.52961609572174	reward_rtpj	151.005648918688	28	1	5	10	750	250	250	250	0	0	0	0	2000	0	BLOCKED	0.75	-1	2	1	ashamed	At this moment	4	1	7	220	RTPJ	352.173758208752	0.034956304619226	8767.31425473062	-5.7204285011347	0.00115718554989148	22.3663608381799	1924.00129366106	0	1699.99491098264	0.105836377439105	0.000253982007300207	31.2577993004606	2006.71329746349	1	4	1	0	0	0	0
152.012259775519	2.56279062223436	reward_rtpj	154.575050397754	29	1	5	10	750	250	250	250	0	0	0	0	2000	0	BLOCKED	0.75	1	2	-1	jittery	At this moment	3	1	7	220	RTPJ	684.644708752632	0	2147.22019820394	0.594614464560866	-0.000276238391311226	46.4958235166794	2175.88264669164	0	1620.17953179074	0.0766818661129645	0.000215384403345211	24.164242666496	1871.904688701	0	5	1	0	0	0	0
155.56268730551	2.51521346890925	reward_rtpj	158.077900774419	30	1	5	10	750	250	250	250	0	0	0	0	2000	0	BLOCKED	0.75	1	7	1	scared	At this moment	1	1	7	220	RTPJ	1013.21995067596	0.476903870162297	n/a	n/a	n/a	n/a	1915.99284009547	0	1602.01884882378	0.642662302839214	-0.000156466457654197	31.1692035088532	2012.03228285934	1	6	1	0	0	0	0
159.064982663572	2.51608478462697	reward_rtpj	161.581067448199	31	1	5	10	750	250	250	250	0	0	0	0	2000	0	BLOCKED	0.75	1	7	1	guilty	At this moment	1	1	7	220	RTPJ	538.846894264221	0.469413233458177	n/a	n/a	n/a	n/a	1845.28941176471	0	1506.13809743924	0.655681581018332	-0.000170099482889261	26.2899905996338	1917.06764027671	2	7	1	0	0	0	0
162.569480112612	2.53073530089856	reward_rtpj	165.100215413511	32	1	5	10	750	250	250	250	0	0	0	0	2000	0	BLOCKED	0.75	-1	0	1	afraid	At this moment	5	1	7	220	RTPJ	1137.37697643042	0	7487.56298528587	-4.80853349256582	0.00100577969337472	73.8301228768049	1839.95505617978	0	1621.71127924436	0.498108393083515	-0.000119239239326521	22.6111194156235	1941.97002305919	0	8	1	0	0	0	0
166.10772015357	6.08162828493118	panas_none	172.189348438501	33	5	6	10	n/a	n/a	n/a	n/a	n/a	n/a	n/a	n/a	2000	0	BLOCKED	n/a	n/a	+	0	alert	At this moment	1	1	7	220	NONE	n/a	0	2984.03616433169	-1.45880335781599	0.000343634184432531	32.5135592663875	1453.8252184769	0.0661029976940815	598.592862695701	2.50037976211679	-0.00117850792826817	49.4957861245173	1774.19259259259	4	1	0	1	0	1	0
173.194969147801	6.03347284024954	panas_none	179.228441988051	34	5	6	10	n/a	n/a	n/a	n/a	n/a	n/a	n/a	n/a	2000	0	BLOCKED	n/a	n/a	+	0	inspired	At this moment	1	1	7	220	NONE	n/a	0	7052.32434276312	-4.79400413220646	0.001044725691942	40.8458241187405	1648.34706616729	0	1861.54005284132	0.281579936495137	6.25326964417383e-05	72.2782773000817	2146.24596464258	5	2	0	1	0	1	0
180.233831733465	6.05041042810677	panas_none	186.284242161572	35	5	6	10	n/a	n/a	n/a	n/a	n/a	n/a	n/a	n/a	2000	0	BLOCKED	n/a	n/a	+	0	excited	At this moment	1	1	7	220	NONE	n/a	0	7961.25215677798	-5.20610700971068	0.00106306818681797	35.2900075656244	1775.98002496879	0.433512682551883	n/a	n/a	n/a	n/a	1840.00814111262	5	3	0	1	0	1	0
187.286657938242	11.0906528027058	panas_none	198.377310740948	36	5	6	10	n/a	n/a	n/a	n/a	n/a	n/a	n/a	n/a	2000	0	BLOCKED	n/a	n/a	+	0	enthusiastic	At this moment	3	1	7	220	NONE	n/a	0.441947565543071	n/a	n/a	n/a	n/a	2119.88590604027	0.997694081475788	n/a	n/a	n/a	n/a	1869	39	4	0	1	0	1	0
199.361466617227	2.51864901286365	punish_vlpfc	201.88011563009	37	4	7	10	0	0	0	0	250	250	250	750	2000	0	BLOCKED	0.25	-1	6	-1	nervous	At this moment	2	1	7	220	VLPFC	1471.82222765684	0.530586766541823	n/a	n/a	n/a	n/a	2022.90425531915	0.0169100691775557	1520.74406382104	0.344556765927447	1.09948338875281e-05	41.8653668500333	1819.61063330727	3	1	0	0	1	0	0
202.880870582283	2.51869908434153	punish_vlpfc	205.399569666624	38	4	7	10	0	0	0	0	250	250	250	750	2000	0	BLOCKED	0.25	1	0	-1	ashamed	At this moment	3	1	7	220	VLPFC	791.088037490845	0	1942.7373217891	0.321835719010329	-0.000130647566109529	24.4836605161796	2035.3595505618	0	1809.65532988458	0.290061193995051	-2.57427292322973e-05	41.8389484658148	2034.40507302075	0	2	0	0	1	0	0
206.405842011511	2.53016229891776	punish_vlpfc	208.936004310429	39	4	7	10	0	0	0	0	250	250	250	750	2000	0	BLOCKED	0.25	-1	3	1	strong	At this moment	4	1	7	220	VLPFC	1484.14900028706	0.429463171036205	n/a	n/a	n/a	n/a	2139.77242888403	0	1702.49806857811	-0.204053530617272	0.000453516606624675	40.8926706283418	1919.29054573405	1	3	0	0	1	0	0
209.9389803949	2.51642400175331	punish_vlpfc	212.455404396653	40	4	7	10	0	0	0	0	250	250	250	750	2000	0	BLOCKED	0.25	1	1	-1	guilty	At this moment	4	1	7	220	VLPFC	662.899545490742	0	2807.54193084761	-0.0460791294521034	-0.000127371291749234	54.1084855824992	2143.4556803995	0	1660.03844007349	0.854434367930133	-0.000248919685551482	63.9208432762138	2169.37355880092	0	4	0	0	1	0	0
213.456166048586	2.51871918350457	punish_vlpfc	215.974885232091	41	4	7	10	0	0	0	0	250	250	250	750	2000	0	BLOCKED	0.25	-1	0	1	upset	At this moment	5	1	7	220	VLPFC	1240.60620439053	0	9027.18194578352	-5.88159862891662	0.00117007729513924	31.1009387102084	1903.71285892634	0	1920.1277839004	-0.109410369377548	0.000240853954104736	42.7837512258458	2038.96003074558	0	5	0	0	1	0	0
216.963899813175	2.56383119392396	punish_vlpfc	219.527731007099	42	4	7	10	0	0	0	0	250	250	250	750	2000	0	BLOCKED	0.25	1	4	-1	excited	At this moment	2	1	7	220	VLPFC	432.07986342907	0	1922.6149247402	0.54923289903775	-0.000232958955823006	36.9049346443021	2039.38951310861	0	1602.14988409919	0.200231975541525	0.000183180581169405	34.0038603831892	1929.62720983859	0	6	0	0	1	0	0
220.534258293867	2.52970707070827	punish_vlpfc	223.063965364575	43	4	7	10	0	0	0	0	250	250	250	750	2000	0	BLOCKED	0.25	-1	6	-1	nervous	At this moment	1	1	7	220	VLPFC	417.65502166748	0.0861423220973783	4806.09829488303	-2.36919928016946	0.000483390002637725	27.9475011502528	1995.49316939891	0	1661.5680406197	0.194217859591613	7.54637101691932e-05	40.4408246938757	1893.1998462721	1	7	0	0	1	0	0
224.069503208995	2.53070673894882	punish_vlpfc	226.600209947944	44	4	7	10	0	0	0	0	250	250	250	750	2000	0	BLOCKED	0.25	-1	9	-1	guilty	At this moment	3	1	7	220	VLPFC	1145.44449263811	0	3333.45086808582	-0.913302839781124	0.000146519923826392	45.5147593623807	2069.75780274657	0	1346.32925832455	0.760655816509293	-0.000140598378539432	47.1245332095648	1872.87471176018	0	8	0	0	1	0	0
227.605912817001	6.06668403887747	panas_none	233.672596855879	45	5	8	10	n/a	n/a	n/a	n/a	n/a	n/a	n/a	n/a	2000	0	BLOCKED	n/a	n/a	+	0	active	At this moment	1	1	7	220	NONE	n/a	0	4079.96514421394	-2.56846828806861	0.000636303043544576	18.9360652192356	1526.24843945069	0.184473481936972	928.551947495916	1.28673631240682	-0.000551551592976913	58.9859488822091	1601.75777568332	5	1	0	1	0	0	1
234.66087834692	6.05087059289218	panas_none	240.711748939812	46	5	8	10	n/a	n/a	n/a	n/a	n/a	n/a	n/a	n/a	2000	0	BLOCKED	n/a	n/a	+	0	determined	At this moment	2	1	7	220	NONE	n/a	0	5972.18311429328	-3.54003756681887	0.000715993239966909	20.9914457133914	1733.4456928839	0	2503.06058707558	0.492388737519458	-0.000396918479221687	80.5927000631522	2576.50730207533	3	2	0	1	0	0	1
241.717374938369	6.05001161867378	panas_none	247.767386557043	47	5	8	10	n/a	n/a	n/a	n/a	n/a	n/a	n/a	n/a	2000	0	BLOCKED	n/a	n/a	+	0	hostile	At this moment	1	1	7	220	NONE	n/a	0	3280.86862086222	-1.34879089006216	0.000264575797491551	20.2558685769638	1629.37578027466	0	1800.38575865385	-0.000748331529255181	7.01188389683417e-05	67.3654937581628	1864.9331283628	4	3	0	1	0	0	1
248.757549610555	12.1706149739623	panas_none	260.928164584518	48	5	8	10	n/a	n/a	n/a	n/a	n/a	n/a	n/a	n/a	2000	0	BLOCKED	n/a	n/a	+	0	ashamed	At this moment	1	1	7	220	NONE	n/a	0.791510611735331	n/a	n/a	n/a	n/a	1615.40718562874	0.531129900076864	n/a	n/a	n/a	n/a	1720.27540983607	6	4	0	1	0	0	1
261.934659077883	2.51302759826183	punish_rtpj	264.447686676145	49	3	9	10	750	250	250	250	0	0	0	0	2000	0	BLOCKED	0.25	-1	3	1	scared	At this moment	1	1	7	220	RTPJ	1467.88385230303	0.68039950062422	n/a	n/a	n/a	n/a	1436.12890625	0.875480399692544	n/a	n/a	n/a	n/a	1418.66049382716	0	1	0	0	1	0	0
265.453346525908	2.5304934059381	punish_rtpj	267.983839931846	50	3	9	10	750	250	250	250	0	0	0	0	2000	0	BLOCKED	0.25	1	1	-1	inspired	At this moment	2	1	7	220	RTPJ	1466.98362201452	0.797752808988764	n/a	n/a	n/a	n/a	1314.19135802469	0.878554957724827	n/a	n/a	n/a	n/a	1307.96835443038	1	2	0	0	1	0	0
268.98941092217	2.51389115637545	punish_rtpj	271.503302078545	51	3	9	10	750	250	250	250	0	0	0	0	2000	0	BLOCKED	0.25	-1	7	-1	afraid	At this moment	3	1	7	220	RTPJ	1036.66190516949	1	n/a	n/a	n/a	n/a	n/a	0.837817063797079	n/a	n/a	n/a	n/a	1385.84360189573	20	3	0	0	1	0	0
272.492687964976	2.53004593533274	punish_rtpj	275.022733900309	52	3	9	10	750	250	250	250	0	0	0	0	2000	0	BLOCKED	0.25	1	0	-1	alert	At this moment	4	1	7	220	RTPJ	852.52161449194	0.915106117353308	n/a	n/a	n/a	n/a	1614.36764705882	0.604919292851653	n/a	n/a	n/a	n/a	1305.52723735409	16	4	0	0	1	0	0
276.015051441491	2.54399333417416	punish_rtpj	278.559044775665	53	3	9	10	750	250	250	250	0	0	0	0	2000	0	BLOCKED	0.25	1	8	1	distressed	At this moment	4	1	7	220	RTPJ	407.904113650322	0.451935081148564	n/a	n/a	n/a	n/a	1409.45102505695	0.939277478862414	n/a	n/a	n/a	n/a	1507.49367088608	9	5	0	0	1	0	0
279.565177836895	2.53004805111885	punish_rtpj	282.095225888014	54	3	9	10	750	250	250	250	0	0	0	0	2000	0	BLOCKED	0.25	-1	9	-1	scared	At this moment	5	1	7	220	RTPJ	557.968237042427	0	3128.23416720026	-1.10727534756822	0.000174470108800456	34.4909506411108	1581.67790262172	0	1210.4675721159	0.662152251021993	-0.000190060800867996	43.293256309948	1608.45503458878	1	6	0	0	1	0	0
283.102492259204	2.51231637042764	punish_rtpj	285.614808629632	55	3	9	10	750	250	250	250	0	0	0	0	2000	0	BLOCKED	0.25	-1	6	-1	jittery	At this moment	2	1	7	220	RTPJ	350.591919898987	0	2141.11438432085	-0.268561395149983	2.88464124155202e-05	31.5326162640255	1705.57553058677	0.340507302075327	n/a	n/a	n/a	n/a	1538.74708624709	6	7	0	0	1	0	0
286.620516435266	2.51402832430603	punish_rtpj	289.134544759572	56	3	9	10	750	250	250	250	0	0	0	0	2000	0	BLOCKED	0.25	1	0	-1	determined	At this moment	3	1	7	220	RTPJ	668.901080787182	0.191011235955056	4742.75068555749	-2.72075585383954	0.000564447771765299	27.8307108519181	1514.17901234568	0.460415065334358	n/a	n/a	n/a	n/a	1521.88888888889	8	8	0	0	1	0	0
290.123329081953	6.03331134182213	panas_none	296.156640423775	57	5	10	10	n/a	n/a	n/a	n/a	n/a	n/a	n/a	n/a	2000	0	BLOCKED	n/a	n/a	+	0	excited	At this moment	1	1	7	220	NONE	n/a	0	3740.78013889198	-2.99534132865783	0.000829886054907078	27.6527059240093	1154.04494382022	0.182167563412759	635.179955430659	1.3499633391392	-0.000636122437719826	31.9714501075019	1285.70018796992	14	1	0	1	0	0	0
297.162957198322	6.01624751710892	panas_none	303.179204715431	58	5	10	10	n/a	n/a	n/a	n/a	n/a	n/a	n/a	n/a	2000	0	BLOCKED	n/a	n/a	+	0	irritable	At this moment	3	1	7	220	NONE	n/a	0	5499.69102322446	-2.70956770724647	0.000540338437257038	34.9181288789842	2221.82896379526	0	1979.88320543648	0.221638448642602	0.000130469077642669	56.3905804260214	2281.095311299	3	2	0	1	0	0	0
304.183962571859	6.05115797543527	panas_none	310.235120547295	59	5	10	10	n/a	n/a	n/a	n/a	n/a	n/a	n/a	n/a	2000	0	BLOCKED	n/a	n/a	+	0	attentive	At this moment	2	1	7	220	NONE	n/a	0.373283395755306	n/a	n/a	n/a	n/a	1700.38047808765	0	1656.83750497028	0.614238866296235	-0.000387825195498918	35.9021035280354	1846.11299000769	6	3	0	1	0	0	0
311.240377708852	5.13268047535422	panas_none	316.373058184207	60	5	10	10	n/a	n/a	n/a	n/a	n/a	n/a	n/a	n/a	2000	0	BLOCKED	n/a	n/a	+	0	hostile	At this moment	1	1	7	220	NONE	n/a	0.595505617977528	n/a	n/a	n/a	n/a	2526.09259259259	0.42966948501153	n/a	n/a	n/a	n/a	2148.48382749326	10	4	0	1	0	0	0
317.378813945711	2.51389609301094	reward_rtpj	319.892710038722	61	1	11	10	750	250	250	250	0	0	0	0	2000	0	BLOCKED	0.75	1	6	1	inspired	At this moment	2	1	7	220	RTPJ	587.893401145935	0.574282147315855	n/a	n/a	n/a	n/a	2261.31671554252	0	1515.60678777672	0.681018057368016	-1.50209981834077e-05	49.5974847463962	2089.76556495004	2	1	1	0	0	0	0
320.897100116014	2.51523392057419	reward_rtpj	323.412334036589	62	1	11	10	750	250	250	250	0	0	0	0	2000	0	BLOCKED	0.75	-1	1	1	distressed	At this moment	2	1	7	220	RTPJ	552.848595917225	0.448189762796504	n/a	n/a	n/a	n/a	2181.02714932127	0	1588.99810272879	0.379576418119306	0.000137046892065795	68.2929352960977	2032.2759415834	2	2	1	0	0	0	0
324.400897620916	2.51402127194405	reward_rtpj	326.91491889286	63	1	11	10	750	250	250	250	0	0	0	0	2000	0	BLOCKED	0.75	1	9	1	upset	At this moment	1	1	7	220	RTPJ	719.702560782433	0.52059925093633	n/a	n/a	n/a	n/a	2054.2890625	0	1720.50212165459	0.382640539369307	7.82791806200497e-06	37.8415838094079	2054.24827056111	3	3	1	0	0	0	0
327.917561402023	2.53390885072946	reward_rtpj	330.451470252752	64	1	11	10	750	250	250	250	0	0	0	0	2000	0	BLOCKED	0.75	-1	1	1	nervous	At this moment	3	1	7	220	RTPJ	704.874325692654	0.975031210986267	n/a	n/a	n/a	n/a	1734.8	0.44043043812452	n/a	n/a	n/a	n/a	2087.54945054945	11	4	1	0	0	0	0
331.440930893838	2.54653887373206	reward_rtpj	333.98746976757	65	1	11	10	750	250	250	250	0	0	0	0	2000	0	BLOCKED	0.75	1	0	-1	strong	At this moment	3	1	7	220	RTPJ	618.618652522564	0	1392.84799194308	0.492642754858211	-0.000177229873801349	21.5595439687796	1636.72034956305	0	1092.26792271066	0.397887147370411	6.9637732728087e-08	38.3842405635342	1431.1337432744	0	5	1	0	0	0	0
334.977329570651	2.51290453505516	reward_rtpj	337.490234105706	66	1	11	10	750	250	250	250	0	0	0	0	2000	0	BLOCKED	0.75	1	10	1	inspired	At this moment	3	1	7	220	RTPJ	367.3398001194	0.455680399500624	n/a	n/a	n/a	n/a	1634.31880733945	0.415833973866257	n/a	n/a	n/a	n/a	1712.91842105263	9	6	1	0	0	0	0
338.495708831727	2.53090420430902	reward_rtpj	341.026613036037	67	1	11	10	750	250	250	250	0	0	0	0	2000	0	BLOCKED	0.75	-1	4	1	proud	At this moment	1	1	7	220	RTPJ	602.108083367348	0.166042446941323	10446.7285203769	-7.66995361334113	0.00165963446128015	26.2819339892419	1698.45508982036	0.4304381245196	n/a	n/a	n/a	n/a	1751.31713900135	5	7	1	0	0	0	0
342.032309205294	2.53048635357618	reward_rtpj	344.56279555887	68	1	11	10	750	250	250	250	0	0	0	0	2000	0	BLOCKED	0.75	1	2	-1	alert	At this moment	4	1	7	220	RTPJ	552.116916418076	0.666666666666667	n/a	n/a	n/a	n/a	1881.64419475655	0.238278247501922	1336.5939360556	0.0814957785146446	0.000226417487499787	23.1506044018251	1520.79011099899	5	8	1	0	0	0	0
345.580286402285	6.05471235126259	panas_none	351.634998753548	69	5	12	10	n/a	n/a	n/a	n/a	n/a	n/a	n/a	n/a	2000	0	BLOCKED	n/a	n/a	+	0	active	At this moment	2	1	7	220	NONE	n/a	0	-2477.64040249211	3.88329146424361	-0.000767349984422923	42.3984747429026	2251.26217228464	0.267486548808609	n/a	n/a	n/a	n/a	2043.26967471144	2	1	0	1	0	1	0
352.638984026849	6.01858219194418	panas_none	358.657566218793	70	5	12	10	n/a	n/a	n/a	n/a	n/a	n/a	n/a	n/a	2000	0	BLOCKED	n/a	n/a	+	0	determined	At this moment	2	1	7	220	NONE	n/a	0.392009987515606	n/a	n/a	n/a	n/a	2023.80287474333	0.541890853189854	n/a	n/a	n/a	n/a	1886.26677852349	10	2	0	1	0	1	0
359.661286677003	6.05176659178733	panas_none	365.71305326879	71	5	12	10	n/a	n/a	n/a	n/a	n/a	n/a	n/a	n/a	2000	0	BLOCKED	n/a	n/a	+	0	hostile	At this moment	2	1	7	220	NONE	n/a	0	3730.93391116061	-2.13870325561621	0.000537901119689628	15.4206718865645	1647.86267166042	0	2055.33177015369	-0.346547448158192	6.69569067256714e-05	21.9911815097272	1818.16141429669	8	3	0	1	0	1	0
366.719173988461	9.26907964587213	panas_none	375.988253634334	72	5	12	10	n/a	n/a	n/a	n/a	n/a	n/a	n/a	n/a	2000	0	BLOCKED	n/a	n/a	+	0	excited	At this moment	4	1	7	220	NONE	n/a	0.6916354556804	n/a	n/a	n/a	n/a	2796.2995951417	0.34435049961568	n/a	n/a	n/a	n/a	2504.81946072685	4	4	0	1	0	1	0
376.994132811666	2.53020214450362	reward_vlpfc	379.524334956169	73	2	13	10	0	0	0	0	250	250	250	750	2000	0	BLOCKED	0.75	-1	7	-1	afraid	At this moment	3	1	7	220	VLPFC	919.057907044888	0.667915106117353	n/a	n/a	n/a	n/a	2770.96240601504	0	1358.73055167988	1.57440673042798	-0.000469049713876443	68.0322032238826	2289.13681783244	2	1	1	0	0	0	0
380.513234584212	2.53064608889821	reward_vlpfc	383.04388067311	74	2	13	10	0	0	0	0	250	250	250	750	2000	0	BLOCKED	0.75	-1	3	1	proud	At this moment	3	1	7	220	VLPFC	652.453982651234	0.591760299625468	n/a	n/a	n/a	n/a	2255.44648318043	0	1998.95930354673	0.378128472200525	8.17286253618311e-05	45.9485369845548	2390.56802459646	1	2	1	0	0	0	0
384.047404018641	2.53269479161503	reward_vlpfc	386.580098810256	75	2	13	10	0	0	0	0	250	250	250	750	2000	0	BLOCKED	0.75	1	7	1	strong	At this moment	1	1	7	220	VLPFC	903.828394174576	0	2896.21582644438	0.273152870098215	-0.000227209779159103	39.3779059821103	2448.70287141074	0	2052.85459278845	0.558680656002099	-7.48437490938295e-05	45.2110769272171	2463.14450422752	0	3	1	0	0	0	0
387.58092146486	2.56901924264429	reward_vlpfc	390.149940707505	76	2	13	10	0	0	0	0	250	250	250	750	2000	0	BLOCKED	0.75	-1	4	1	ashamed	At this moment	2	1	7	220	VLPFC	641.314470231533	0	9334.95255252632	-5.58185369953615	0.00101501302467724	66.2683643807736	2135.11985018727	0	1902.7343237191	0.579648497723486	-0.000103135879237015	31.7591212743608	2303.44119907763	2	4	1	0	0	0	0
391.150470337689	2.55205767685175	reward_vlpfc	393.702528014541	77	2	13	10	0	0	0	0	250	250	250	750	2000	0	BLOCKED	0.75	-1	4	1	alert	At this moment	3	1	7	220	VLPFC	990.448672950268	0	11275.65067609	-7.71598543571392	0.00160382950096105	47.4303360738177	2222.06242197253	0	2174.38422646244	0.194324795021855	0.000116755773865426	37.0488533680415	2440.37279016141	0	5	1	0	0	0	0
394.691978782356	2.51356251770261	reward_vlpfc	397.205541300058	78	2	13	10	0	0	0	0	250	250	250	750	2000	0	BLOCKED	0.75	-1	10	-1	enthusiastic	At this moment	3	1	7	220	VLPFC	963.960110604763	0	3714.92180946012	-0.737978964441999	7.96508422835969e-05	49.0261585412706	2519.86017478152	0	2126.81555846647	0.451685215901321	-9.1718344483317e-05	38.9868128638014	2431.56033820138	0	6	1	0	0	0	0
398.195346094966	2.51289007782935	reward_vlpfc	400.708236172795	79	2	13	10	0	0	0	0	250	250	250	750	2000	0	BLOCKED	0.75	1	6	1	hostile	At this moment	5	1	7	220	VLPFC	334.101449966431	0.621722846441948	n/a	n/a	n/a	n/a	2496.12871287129	0	1539.18988612505	1.47072858139199	-0.000448230485399192	51.2225370684297	2409.8662567256	2	7	1	0	0	0	0
401.697446103394	2.51386753112075	reward_vlpfc	404.211313634515	80	2	13	10	0	0	0	0	250	250	250	750	2000	0	BLOCKED	0.75	1	6	1	strong	At this moment	5	1	7	220	VLPFC	1218.91604942083	0.617977528089888	n/a	n/a	n/a	n/a	2224.24183006536	0	1567.76714013606	1.03761608902715	-0.000215756754714368	74.3959440532472	2262.29900076864	2	8	1	0	0	0	0
405.217291191876	6.03281838375329	panas_none	411.250109575629	81	5	14	10	n/a	n/a	n/a	n/a	n/a	n/a	n/a	n/a	2000	0	BLOCKED	n/a	n/a	+	0	upset	At this moment	1	1	7	220	NONE	n/a	0.785268414481898	n/a	n/a	n/a	n/a	1887.43023255814	0.119139123750961	1831.93458199671	0.855733122621813	-0.000394994794372606	75.704023318856	2213.71029668412	17	1	0	1	0	1	1
412.255482748091	6.01702503681184	panas_none	418.272507784903	82	5	14	10	n/a	n/a	n/a	n/a	n/a	n/a	n/a	n/a	2000	0	BLOCKED	n/a	n/a	+	0	attentive	At this moment	2	1	7	220	NONE	n/a	0.471910112359551	n/a	n/a	n/a	n/a	1846.3073286052	1	n/a	n/a	n/a	n/a	n/a	34	2	0	1	0	1	1
419.256656256259	6.05489923804998	panas_none	425.311555494308	83	5	14	10	n/a	n/a	n/a	n/a	n/a	n/a	n/a	n/a	2000	0	BLOCKED	n/a	n/a	+	0	ashamed	At this moment	1	1	7	220	NONE	n/a	1	n/a	n/a	n/a	n/a	n/a	0.458109146810146	n/a	n/a	n/a	n/a	1703.77872340426	44	3	0	1	0	1	1
426.312546347082	5.37111174029116	panas_none	431.683658087373	84	5	14	10	n/a	n/a	n/a	n/a	n/a	n/a	n/a	n/a	2000	0	BLOCKED	n/a	n/a	+	0	enthusiastic	At this moment	4	1	7	220	NONE	n/a	0	6363.84745573172	-3.78431513524444	0.000936692248717214	31.680891338843	2597.92009987516	0.435049961568025	n/a	n/a	n/a	n/a	2272.5306122449	2	4	0	1	0	1	1
432.685497335851	2.51741309142113	punish_rtpj	435.202910427272	85	3	15	10	750	250	250	250	0	0	0	0	2000	0	BLOCKED	0.25	1	4	-1	interested	At this moment	3	1	7	220	RTPJ	789.460711598396	0.535580524344569	n/a	n/a	n/a	n/a	2657.38709677419	0	1897.0929413698	0.814679824393818	-0.000234765578518488	41.0495396214547	2387.89469638739	2	1	0	0	1	0	0
436.192005757511	2.51385659998652	punish_rtpj	438.705862357497	86	3	15	10	750	250	250	250	0	0	0	0	2000	0	BLOCKED	0.25	1	10	1	attentive	At this moment	5	1	7	220	RTPJ	426.817765295506	0.639200998751561	n/a	n/a	n/a	n/a	2326.58477508651	0	2244.49785116697	0.344039415834333	-2.15868560754417e-05	48.0963148002036	2518.13604919293	1	2	0	0	1	0	0
439.695340276837	2.53001984173062	punish_rtpj	442.225360118568	87	3	15	10	750	250	250	250	0	0	0	0	2000	0	BLOCKED	0.25	-1	1	1	irritable	At this moment	5	1	7	220	RTPJ	477.650628149509	0	10033.163174905	-6.45668702351872	0.00130946207499407	77.6092089515215	2317.16729088639	0	1520.76866852652	1.49190994772157	-0.000541333119656079	62.9822626445397	2316.39815526518	0	3	0	0	1	0	0
443.230780189037	2.54730898845196	punish_rtpj	445.778089177489	88	3	15	10	750	250	250	250	0	0	0	0	2000	0	BLOCKED	0.25	1	2	-1	guilty	At this moment	3	1	7	220	RTPJ	1102.36284887791	0	5516.16104709195	-2.05672249912132	0.000261451412078861	69.9462711326826	2367.74781523096	0	1832.25432514677	1.49805293996066	-0.00061358152832804	79.9103358322156	2571.79554189085	0	4	0	0	1	0	0
446.781203135073	2.5165431861281	punish_rtpj	449.297746321201	89	3	15	10	750	250	250	250	0	0	0	0	2000	0	BLOCKED	0.25	-1	9	-1	strong	At this moment	5	1	7	220	RTPJ	338.112464249134	0	2468.17159574661	0.654694846003742	-0.000278558930172765	36.9428468660013	2600.30337078652	0	2062.6869688667	0.46361580316831	-5.1651129083112e-06	50.963044942672	2452.1806302844	0	5	0	0	1	0	0
450.302118415058	2.53171804350615	punish_rtpj	452.833836458564	90	3	15	10	750	250	250	250	0	0	0	0	2000	0	BLOCKED	0.25	1	1	-1	upset	At this moment	2	1	7	220	RTPJ	1187.96935474873	0	2498.58273505888	0.0608541258575242	-4.56342579053211e-05	40.6426367967445	2423.40948813983	0	1370.03170744072	0.60947744498401	0.000133783409714015	52.9072414842208	2004.32436587241	0	6	0	0	1	0	0
453.839433189929	2.51411401009562	punish_rtpj	456.353547200024	91	3	15	10	750	250	250	250	0	0	0	0	2000	0	BLOCKED	0.25	1	4	-1	afraid	At this moment	5	1	7	220	RTPJ	1336.57293999195	0	2741.35305562269	0.0486870462422072	-5.75573579699882e-05	42.3869439020211	2585.14606741573	0	2109.79943698782	0.137405746956915	0.000122356106691256	39.4492599931057	2333.4289008455	2	7	0	0	1	0	0
457.360072018445	2.5296206796765	punish_rtpj	459.889692698121	92	3	15	10	750	250	250	250	0	0	0	0	2000	0	BLOCKED	0.25	-1	8	-1	enthusiastic	At this moment	2	1	7	220	RTPJ	609.042994916439	0	1901.91715185095	1.08926698941977	-0.000432302963537306	40.6035724875195	2261.01622971286	0	1311.16854976881	1.16501617592163	-0.000254562325627483	46.6608393240857	2076.27132974635	0	8	0	0	1	0	0
460.895309176028	6.0333638817072	panas_none	466.928673057735	93	5	16	10	n/a	n/a	n/a	n/a	n/a	n/a	n/a	n/a	2000	0	BLOCKED	n/a	n/a	+	0	excited	At this moment	1	1	7	220	NONE	n/a	0	4846.54444736547	-3.612068396051	0.000960772920766087	13.5881483756788	1549.66541822722	0.353574173712529	n/a	n/a	n/a	n/a	1852.25089179548	9	1	0	1	0	0	0
467.934262736797	6.05028489661214	panas_none	473.984547633409	94	5	16	10	n/a	n/a	n/a	n/a	n/a	n/a	n/a	n/a	2000	0	BLOCKED	n/a	n/a	+	0	interested	At this moment	2	1	7	220	NONE	n/a	0	7567.93829967621	-4.85170590809149	0.00108008574715681	37.239628824926	2200.39575530587	0.41967717140661	n/a	n/a	n/a	n/a	2323.36821192053	10	2	0	1	0	0	0
474.972644000709	6.0177676475048	panas_none	480.990411648214	95	5	16	10	n/a	n/a	n/a	n/a	n/a	n/a	n/a	n/a	2000	0	BLOCKED	n/a	n/a	+	0	proud	At this moment	2	1	7	220	NONE	n/a	0	2583.57723347276	-0.730914776118585	0.000202213675334788	38.2460615699525	1952.20848938826	0	2406.83532563732	-0.641753135486926	0.00020421361946983	38.7623348349039	2032.49269792467	20	3	0	1	0	0	0
481.997735143304	13.3706914212704	panas_none	495.368426564574	96	5	16	10	n/a	n/a	n/a	n/a	n/a	n/a	n/a	n/a	2000	0	BLOCKED	n/a	n/a	+	0	attentive	At this moment	1	1	7	220	NONE	n/a	0	841.42563024501	1.56394649897532	-0.000301003542346374	38.3883759731496	2782.14232209738	0.00230591852421214	2286.19786121144	-0.0118345371998368	0.000162123678341742	47.5051159592281	2396.14946070878	8	4	0	1	0	0	0
