onset	duration	trial_type	offset	trial	block	blockCntr	frequency	amplitude_1	amplitude_2	amplitude_3	amplitude_4	amplitude_5	amplitude_6	amplitude_7	amplitude_8	transition	sham	mode	rewardFraction	guess	outcome	correct	word	when	answer	runNr	scanNr	subjectNr	target	reactionTime	outcomeEyeClosed	outcomeParms_1	outcomeParms_2	outcomeParms_3	outcomeSigma	outcomePupilArea	guessEyeClosed	guessParms_1	guessParms_2	guessParms_3	guessSigma	guessPupilArea	nrBlinks	trialInBlock	isReward	isPanas	isPunish	beforePanasReward	beforePanasVLPFC
20.4640487936735	2.55882403755188	punish_vlpfc	23.0228728312254	1	4	1	10	0	0	0	0	250	250	250	750	2000	0	BLOCKED	0.25	-1	9	-1	guilty	At this moment	2	2	8	216	VLPFC	1536.57569038868	0	9714.03849526284	-7.47368730153635	0.00178055620883653	43.4001010653629	1964.82771535581	0	1516.98727283454	-0.214848357712479	0.000366057832529644	43.0656803126371	1650.25211375865	0	1	0	0	1	0	0
24.0094434262514	2.70000045847893	punish_vlpfc	26.7094438847303	2	4	1	10	0	0	0	0	250	250	250	750	2000	0	BLOCKED	0.25	1	0	-1	interested	At this moment	5	2	8	216	VLPFC	289.656942844391	0	4266.04757697721	-1.51398379076714	0.000261348044076251	60.5024831803494	2253.9013732834	0	1733.31522139346	0.611034273658974	-0.000123333232478282	19.6984744435581	2146.30130668716	1	2	0	0	1	0	0
27.6986855509281	2.76402541518211	punish_vlpfc	30.4627109661102	3	4	1	10	0	0	0	0	250	250	250	750	2000	0	BLOCKED	0.25	1	1	-1	proud	At this moment	3	2	8	216	VLPFC	297.806266069412	0	2840.6226375945	-0.532392040301872	0.000110306832478521	42.1477777431498	2215.26092384519	0.339738662567256	n/a	n/a	n/a	n/a	2071.30966239814	2	3	0	0	1	0	0
31.4686155318022	2.69670948719978	punish_vlpfc	34.165325019002	4	4	1	10	0	0	0	0	250	250	250	750	2000	0	BLOCKED	0.25	-1	0	1	attentive	At this moment	2	2	8	216	VLPFC	458.959125041962	0.578027465667915	n/a	n/a	n/a	n/a	2289.23964497041	0.341275941583397	n/a	n/a	n/a	n/a	2159.7747957993	2	4	0	0	1	0	0
35.1546262774467	2.63059069287777	punish_vlpfc	37.7852169703245	5	4	1	10	0	0	0	0	250	250	250	750	2000	0	BLOCKED	0.25	-1	10	-1	afraid	At this moment	3	2	8	216	VLPFC	521.850066661835	0	2084.54277425215	0.42202662695478	-0.000169052011264755	36.4809466087462	2216.70162297129	0	1849.18036208722	0.530206969844938	-0.000162594728242509	22.3759411211775	2160.08301306687	0	5	0	0	1	0	0
38.79614173913	2.59173022294044	punish_vlpfc	41.3878719620705	6	4	1	10	0	0	0	0	250	250	250	750	2000	0	BLOCKED	0.25	-1	7	-1	enthusiastic	At this moment	3	2	8	216	VLPFC	619.095742821693	0.902621722846442	n/a	n/a	n/a	n/a	2212.78205128205	0.4619523443505	n/a	n/a	n/a	n/a	2042.50428571429	5	6	0	0	1	0	0
42.3887386938334	2.56860491800308	punish_vlpfc	44.9573436118364	7	4	1	10	0	0	0	0	250	250	250	750	2000	0	BLOCKED	0.25	-1	3	1	proud	At this moment	1	2	8	216	VLPFC	757.859560489655	0	10432.5381699363	-7.85748182837402	0.0017953844036922	65.9745487043527	1943.62921348315	0.439661798616449	n/a	n/a	n/a	n/a	2136.62551440329	1	7	0	0	1	0	0
45.9648822029829	2.7122602339983	punish_vlpfc	48.6771424369812	8	4	1	10	0	0	0	0	250	250	250	750	2000	0	BLOCKED	0.25	1	2	-1	hostile	At this moment	2	2	8	216	VLPFC	565.930673599243	0	1334.86747574595	1.29803090520374	-0.000380079972962258	50.1867895804886	2365.72534332085	0.348193697156034	n/a	n/a	n/a	n/a	2308.90801886792	2	8	0	0	1	0	0
49.6983184770346	6.15128629255295	panas_none	55.8496047695875	9	5	2	10	n/a	n/a	n/a	n/a	n/a	n/a	n/a	n/a	2000	0	BLOCKED	n/a	n/a	+	0	upset	At this moment	3	2	8	216	NONE	n/a	0.812734082397004	n/a	n/a	n/a	n/a	1526.84	0.126056879323597	1019.65012732736	2.26258062937345	-0.00150489542556288	64.9685961082858	1710.79771328056	8	1	0	1	0	0	1
56.8399744564295	6.33224527585507	panas_none	63.1722197322845	10	5	2	10	n/a	n/a	n/a	n/a	n/a	n/a	n/a	n/a	2000	0	BLOCKED	n/a	n/a	+	0	enthusiastic	At this moment	4	2	8	216	NONE	n/a	1	n/a	n/a	n/a	n/a	n/a	1	n/a	n/a	n/a	n/a	n/a	5	2	0	1	0	0	1
64.1612505338192	6.35050270783901	panas_none	70.5117532416582	11	5	2	10	n/a	n/a	n/a	n/a	n/a	n/a	n/a	n/a	2000	0	BLOCKED	n/a	n/a	+	0	active	At this moment	3	2	8	216	NONE	n/a	1	n/a	n/a	n/a	n/a	n/a	1	n/a	n/a	n/a	n/a	n/a	0	3	0	1	0	0	1
71.5278794586659	11.6273244048357	panas_none	83.1552038635016	12	5	2	10	n/a	n/a	n/a	n/a	n/a	n/a	n/a	n/a	2000	0	BLOCKED	n/a	n/a	+	0	attentive	At this moment	3	2	8	216	NONE	n/a	1	n/a	n/a	n/a	n/a	n/a	1	n/a	n/a	n/a	n/a	n/a	20	4	0	1	0	0	1
84.1613831175566	2.63031988322736	reward_vlpfc	86.7917030007839	13	2	3	10	0	0	0	0	250	250	250	750	2000	0	BLOCKED	0.75	1	8	1	upset	At this moment	2	2	8	216	VLPFC	802.54525744915	1	n/a	n/a	n/a	n/a	n/a	1	n/a	n/a	n/a	n/a	n/a	2	1	1	0	0	0	0
87.7757037258148	2.73548074519634	reward_vlpfc	90.5111844710112	14	2	3	10	0	0	0	0	250	250	250	750	2000	0	BLOCKED	0.75	-1	8	-1	proud	At this moment	5	2	8	216	VLPFC	304.238346219063	1	n/a	n/a	n/a	n/a	n/a	1	n/a	n/a	n/a	n/a	n/a	0	2	1	0	0	0	0
91.4992325297594	2.63156215178967	reward_vlpfc	94.1307946815491	15	2	3	10	0	0	0	0	250	250	250	750	2000	0	BLOCKED	0.75	1	7	1	afraid	At this moment	1	2	8	216	VLPFC	233.321144580841	1	n/a	n/a	n/a	n/a	n/a	1	n/a	n/a	n/a	n/a	n/a	0	3	1	0	0	0	0
95.118745418191	2.56495674622059	reward_vlpfc	97.6837021644115	16	2	3	10	0	0	0	0	250	250	250	750	2000	0	BLOCKED	0.75	1	6	1	guilty	At this moment	2	2	8	216	VLPFC	375.110413074493	1	n/a	n/a	n/a	n/a	n/a	1	n/a	n/a	n/a	n/a	n/a	0	4	1	0	0	0	0
98.6713295515776	2.68209387993812	reward_vlpfc	101.353423431516	17	2	3	10	0	0	0	0	250	250	250	750	2000	0	BLOCKED	0.75	1	6	1	irritable	At this moment	4	2	8	216	VLPFC	295.97512793541	1	n/a	n/a	n/a	n/a	n/a	1	n/a	n/a	n/a	n/a	n/a	0	5	1	0	0	0	0
102.358808592916	2.74759206902981	reward_vlpfc	105.106400661945	18	2	3	10	0	0	0	0	250	250	250	750	2000	0	BLOCKED	0.75	1	3	-1	alert	At this moment	5	2	8	216	VLPFC	691.852545619011	1	n/a	n/a	n/a	n/a	n/a	1	n/a	n/a	n/a	n/a	n/a	3	6	1	0	0	0	0
106.112178285718	2.68069363939763	reward_vlpfc	108.792871925116	19	2	3	10	0	0	0	0	250	250	250	750	2000	0	BLOCKED	0.75	-1	3	1	upset	At this moment	2	2	8	216	VLPFC	209.882363557816	1	n/a	n/a	n/a	n/a	n/a	1	n/a	n/a	n/a	n/a	n/a	0	7	1	0	0	0	0
109.781848423481	2.59718872857093	reward_vlpfc	112.379037152052	20	2	3	10	0	0	0	0	250	250	250	750	2000	0	BLOCKED	0.75	1	8	1	afraid	At this moment	2	2	8	216	VLPFC	520.084515213966	1	n/a	n/a	n/a	n/a	n/a	1	n/a	n/a	n/a	n/a	n/a	1	8	1	0	0	0	0
113.386558465123	6.36505378627777	panas_none	119.751612251401	21	5	4	10	n/a	n/a	n/a	n/a	n/a	n/a	n/a	n/a	2000	0	BLOCKED	n/a	n/a	+	0	inspired	At this moment	3	2	8	216	NONE	n/a	1	n/a	n/a	n/a	n/a	n/a	1	n/a	n/a	n/a	n/a	n/a	3	1	0	1	0	1	1
120.752324184418	6.17334246385097	panas_none	126.925666648269	22	5	4	10	n/a	n/a	n/a	n/a	n/a	n/a	n/a	n/a	2000	0	BLOCKED	n/a	n/a	+	0	irritable	At this moment	4	2	8	216	NONE	n/a	1	n/a	n/a	n/a	n/a	n/a	1	n/a	n/a	n/a	n/a	n/a	15	2	0	1	0	1	1
127.92996363461	6.28487405061722	panas_none	134.214837685227	23	5	4	10	n/a	n/a	n/a	n/a	n/a	n/a	n/a	n/a	2000	0	BLOCKED	n/a	n/a	+	0	active	At this moment	3	2	8	216	NONE	n/a	1	n/a	n/a	n/a	n/a	n/a	1	n/a	n/a	n/a	n/a	n/a	9	3	0	1	0	1	1
135.199772844315	10.9900706679821	panas_none	146.189843512297	24	5	4	10	n/a	n/a	n/a	n/a	n/a	n/a	n/a	n/a	2000	0	BLOCKED	n/a	n/a	+	0	jittery	At this moment	2	2	8	216	NONE	n/a	0	4911.53824512368	-2.57907970901562	0.000587004081452764	38.1716753495627	2115.60549313358	0.495772482705611	n/a	n/a	n/a	n/a	1710.24390243902	2	4	0	1	0	1	1
147.179378202796	2.69659488689899	reward_rtpj	149.875973089695	25	1	5	10	750	250	250	250	0	0	0	0	2000	0	BLOCKED	0.75	1	8	1	alert	At this moment	1	2	8	216	RTPJ	973.407415747643	0	13556.6156485447	-10.2398388207313	0.00220963076339317	22.1464801579415	1911.50312109863	0.445042275172944	n/a	n/a	n/a	n/a	1792.00554016621	3	1	1	0	0	0	0
150.881687947631	2.7140783253908	reward_rtpj	153.595766273022	26	1	5	10	750	250	250	250	0	0	0	0	2000	0	BLOCKED	0.75	1	10	1	ashamed	At this moment	3	2	8	216	RTPJ	502.206498742104	0	19915.0077825536	-15.9514053949246	0.00350176062028167	32.3980113548337	1973.97128589263	0	1660.0355928252	0.802236645759735	-0.000290602421288452	41.3643928210293	2092.5710991545	0	2	1	0	0	0	0
154.585164148211	2.64679519081116	reward_rtpj	157.231959339023	27	1	5	10	750	250	250	250	0	0	0	0	2000	0	BLOCKED	0.75	1	0	-1	proud	At this moment	1	2	8	216	RTPJ	769.263535499573	0	3512.40528115634	-0.709770146060982	6.7091484885699e-05	66.0415883523313	2322.46441947566	0.0476556495003843	1455.80962045572	1.03578350786964	-0.0003075330744318	18.3348836050413	2099.95803066989	2	3	1	0	0	0	0
158.216172691941	2.6357128021717	reward_rtpj	160.851885494113	28	1	5	10	750	250	250	250	0	0	0	0	2000	0	BLOCKED	0.75	-1	8	-1	guilty	At this moment	1	2	8	216	RTPJ	273.382274031639	0	4478.25474126873	-1.64853026601532	0.000308777863722818	46.943875065114	2394.87515605493	0.395080707148347	n/a	n/a	n/a	n/a	2301.17789072427	2	4	1	0	0	0	0
161.856874667048	2.63116122651101	reward_rtpj	164.488035893559	29	1	5	10	750	250	250	250	0	0	0	0	2000	0	BLOCKED	0.75	1	9	1	afraid	At this moment	1	2	8	216	RTPJ	753.690926551819	0.786516853932584	n/a	n/a	n/a	n/a	2531.10526315789	0.463489623366641	n/a	n/a	n/a	n/a	2481.31088825215	6	5	1	0	0	0	0
165.475191832185	2.59911331021783	reward_rtpj	168.074305142403	30	1	5	10	750	250	250	250	0	0	0	0	2000	0	BLOCKED	0.75	-1	3	1	inspired	At this moment	2	2	8	216	RTPJ	649.79666364193	0.440699126092385	n/a	n/a	n/a	n/a	2300.98660714286	0.272098385857033	n/a	n/a	n/a	n/a	2419.90073917635	6	6	1	0	0	0	0
169.05832385087	2.73553469550612	reward_rtpj	171.793858546376	31	1	5	10	750	250	250	250	0	0	0	0	2000	0	BLOCKED	0.75	1	8	1	active	At this moment	3	2	8	216	RTPJ	521.978419184685	0	19803.7545342354	-15.7921446276614	0.00347128815726931	30.7504447119408	2074.14107365793	0.735588009223674	n/a	n/a	n/a	n/a	2423.5261627907	3	7	1	0	0	0	0
172.782896400094	2.61383117640017	reward_rtpj	175.396727576494	32	1	5	10	750	250	250	250	0	0	0	0	2000	0	BLOCKED	0.75	1	9	1	scared	At this moment	5	2	8	216	RTPJ	318.476301312447	0	17629.2443824883	-14.6503446511527	0.00338215058760261	41.259958115383	1956.02996254682	0.34358186010761	n/a	n/a	n/a	n/a	2094.01756440281	9	8	1	0	0	0	0
176.380871816397	6.17162839436531	panas_none	182.552500210762	33	5	6	10	n/a	n/a	n/a	n/a	n/a	n/a	n/a	n/a	2000	0	BLOCKED	n/a	n/a	+	0	hostile	At this moment	3	2	8	216	NONE	n/a	1	n/a	n/a	n/a	n/a	n/a	1	n/a	n/a	n/a	n/a	n/a	8	1	0	1	0	1	0
183.562336804628	6.47961152923108	panas_none	190.041948333859	34	5	6	10	n/a	n/a	n/a	n/a	n/a	n/a	n/a	n/a	2000	0	BLOCKED	n/a	n/a	+	0	attentive	At this moment	4	2	8	216	NONE	n/a	1	n/a	n/a	n/a	n/a	n/a	1	n/a	n/a	n/a	n/a	n/a	1	2	0	1	0	1	0
191.046985110044	6.3009043560028	panas_none	197.347889466047	35	5	6	10	n/a	n/a	n/a	n/a	n/a	n/a	n/a	n/a	2000	0	BLOCKED	n/a	n/a	+	0	proud	At this moment	2	2	8	216	NONE	n/a	1	n/a	n/a	n/a	n/a	n/a	1	n/a	n/a	n/a	n/a	n/a	10	3	0	1	0	1	0
198.353821535707	9.0855924013853	panas_none	207.439413937092	36	5	6	10	n/a	n/a	n/a	n/a	n/a	n/a	n/a	n/a	2000	0	BLOCKED	n/a	n/a	+	0	active	At this moment	1	2	8	216	NONE	n/a	0.00124843945068664	790.995419731158	1.4124592315608	-0.000326162970553736	40.783039118046	2290.96875	0.588009223674097	n/a	n/a	n/a	n/a	2074.0578358209	12	4	0	1	0	1	0
208.429256461978	2.61309879148007	reward_vlpfc	211.042355253458	37	2	7	10	0	0	0	0	250	250	250	750	2000	0	BLOCKED	0.75	1	7	1	strong	At this moment	4	2	8	216	VLPFC	754.070341944695	1	n/a	n/a	n/a	n/a	n/a	1	n/a	n/a	n/a	n/a	n/a	3	1	1	0	0	0	0
212.043178260684	2.7522744655609	reward_vlpfc	214.795452726245	38	2	7	10	0	0	0	0	250	250	250	750	2000	0	BLOCKED	0.75	1	7	1	inspired	At this moment	5	2	8	216	VLPFC	303.070479989052	0.503121098626717	n/a	n/a	n/a	n/a	2168.3040201005	0.268255188316679	n/a	n/a	n/a	n/a	2159.51050420168	5	2	1	0	0	0	0
215.798018717527	2.66746452057362	reward_vlpfc	218.465483238101	39	2	7	10	0	0	0	0	250	250	250	750	2000	0	BLOCKED	0.75	1	7	1	ashamed	At this moment	5	2	8	216	VLPFC	310.067804694176	1	n/a	n/a	n/a	n/a	n/a	1	n/a	n/a	n/a	n/a	n/a	4	3	1	0	0	0	0
219.469833469748	2.73156246900558	reward_vlpfc	222.201395938754	40	2	7	10	0	0	0	0	250	250	250	750	2000	0	BLOCKED	0.75	1	1	-1	proud	At this moment	2	2	8	216	VLPFC	297.783698558807	1	n/a	n/a	n/a	n/a	n/a	1	n/a	n/a	n/a	n/a	n/a	2	4	1	0	0	0	0
223.206988438725	2.73110618305208	reward_vlpfc	225.938094621778	41	2	7	10	0	0	0	0	250	250	250	750	2000	0	BLOCKED	0.75	-1	0	1	attentive	At this moment	5	2	8	216	VLPFC	265.052763819695	1	n/a	n/a	n/a	n/a	n/a	1	n/a	n/a	n/a	n/a	n/a	9	5	1	0	0	0	0
226.944796806455	2.7797764480114	reward_vlpfc	229.724573254466	42	2	7	10	0	0	0	0	250	250	250	750	2000	0	BLOCKED	0.75	-1	3	1	enthusiastic	At this moment	5	2	8	216	VLPFC	568.019574403763	1	n/a	n/a	n/a	n/a	n/a	1	n/a	n/a	n/a	n/a	n/a	1	6	1	0	0	0	0
230.725231237173	2.6188034235239	reward_vlpfc	233.344034660697	43	2	7	10	0	0	0	0	250	250	250	750	2000	0	BLOCKED	0.75	1	9	1	hostile	At this moment	4	2	8	216	VLPFC	392.81141602993	1	n/a	n/a	n/a	n/a	n/a	1	n/a	n/a	n/a	n/a	n/a	2	7	1	0	0	0	0
234.351199125767	2.56220809948445	reward_vlpfc	236.913407225251	44	2	7	10	0	0	0	0	250	250	250	750	2000	0	BLOCKED	0.75	1	3	-1	jittery	At this moment	5	2	8	216	VLPFC	391.253908276558	1	n/a	n/a	n/a	n/a	n/a	1	n/a	n/a	n/a	n/a	n/a	1	8	1	0	0	0	0
237.919562854171	6.316571113348	panas_none	244.236133967519	45	5	8	10	n/a	n/a	n/a	n/a	n/a	n/a	n/a	n/a	2000	0	BLOCKED	n/a	n/a	+	0	proud	At this moment	2	2	8	216	NONE	n/a	1	n/a	n/a	n/a	n/a	n/a	1	n/a	n/a	n/a	n/a	n/a	3	1	0	1	0	1	1
245.224894664645	6.35064375448226	panas_none	251.575538419127	46	5	8	10	n/a	n/a	n/a	n/a	n/a	n/a	n/a	n/a	2000	0	BLOCKED	n/a	n/a	+	0	excited	At this moment	3	2	8	216	NONE	n/a	1	n/a	n/a	n/a	n/a	n/a	1	n/a	n/a	n/a	n/a	n/a	1	2	0	1	0	1	1
252.565368955135	6.36588419854644	panas_none	258.931253153682	47	5	8	10	n/a	n/a	n/a	n/a	n/a	n/a	n/a	n/a	2000	0	BLOCKED	n/a	n/a	+	0	inspired	At this moment	4	2	8	216	NONE	n/a	1	n/a	n/a	n/a	n/a	n/a	1	n/a	n/a	n/a	n/a	n/a	2	3	0	1	0	1	1
259.919102689385	14.1244144359827	panas_none	274.043517125368	48	5	8	10	n/a	n/a	n/a	n/a	n/a	n/a	n/a	n/a	2000	0	BLOCKED	n/a	n/a	+	0	afraid	At this moment	4	2	8	216	NONE	n/a	0.990012484394507	n/a	n/a	n/a	n/a	2033.375	0.438124519600307	n/a	n/a	n/a	n/a	1878.00136798906	43	4	0	1	0	1	1
275.032956256747	2.71382303094862	punish_vlpfc	277.746779287696	49	4	9	10	0	0	0	0	250	250	250	750	2000	0	BLOCKED	0.25	1	4	-1	determined	At this moment	3	2	8	216	VLPFC	960.069691181183	0	5713.82119437956	-2.68548206292323	0.000511368920044644	29.2555998254879	2354.59925093633	0.280553420445811	n/a	n/a	n/a	n/a	2070.26175213675	3	1	0	0	1	0	0
278.750894323945	2.71573209738733	punish_vlpfc	281.466626421332	50	4	9	10	0	0	0	0	250	250	250	750	2000	0	BLOCKED	0.25	-1	8	-1	hostile	At this moment	1	2	8	216	VLPFC	478.204588890076	0.245942571785268	-1411.32280858148	4.00223863720506	-0.00104664115145654	33.6312073922512	2374.53642384106	0.407378939277479	n/a	n/a	n/a	n/a	2392.28404669261	4	2	0	0	1	0	0
282.472828242779	2.71304233777522	punish_vlpfc	285.185870580554	51	4	9	10	0	0	0	0	250	250	250	750	2000	0	BLOCKED	0.25	-1	2	1	attentive	At this moment	1	2	8	216	VLPFC	248.058757305145	0.801498127340824	n/a	n/a	n/a	n/a	2528.2893081761	0.963873943120676	n/a	n/a	n/a	n/a	2308.85106382979	9	3	0	0	1	0	0
286.192603442669	2.67963367366787	punish_vlpfc	288.872237116337	52	4	9	10	0	0	0	0	250	250	250	750	2000	0	BLOCKED	0.25	1	2	-1	strong	At this moment	5	2	8	216	VLPFC	371.217525362968	0	2576.33662458765	-0.164062810067228	3.34219760673137e-05	26.1837085891603	2381.56304619226	0.632590315142198	n/a	n/a	n/a	n/a	2305.50836820084	0	4	0	0	1	0	0
289.87816107595	2.59699126327041	punish_vlpfc	292.47515233922	53	4	9	10	0	0	0	0	250	250	250	750	2000	0	BLOCKED	0.25	1	6	1	active	At this moment	2	2	8	216	VLPFC	902.695436954498	0.558052434456929	n/a	n/a	n/a	n/a	2273.9604519774	0.245964642582629	1514.59413469942	1.30709211932565	-0.000492553523636522	18.0401839181273	2199.49745158002	11	5	0	0	1	0	0
293.480307947159	2.63117956268792	punish_vlpfc	296.111487509847	54	4	9	10	0	0	0	0	250	250	250	750	2000	0	BLOCKED	0.25	-1	9	-1	excited	At this moment	2	2	8	216	VLPFC	303.256308913231	0.172284644194757	10210.1318307023	-7.19666656268851	0.00161396460522538	22.4125867185877	2252.3604826546	0.915449654112221	n/a	n/a	n/a	n/a	2108.70909090909	12	6	0	0	1	0	0
297.118647743344	2.69599896478655	punish_vlpfc	299.814646708131	55	4	9	10	0	0	0	0	250	250	250	750	2000	0	BLOCKED	0.25	-1	6	-1	attentive	At this moment	2	2	8	216	VLPFC	750.76702940464	0.877652933832709	n/a	n/a	n/a	n/a	2245.79591836735	0.847040737893928	n/a	n/a	n/a	n/a	2245.32663316583	13	7	0	0	1	0	0
300.803975470543	2.61339569473267	punish_vlpfc	303.417371165276	56	4	9	10	0	0	0	0	250	250	250	750	2000	0	BLOCKED	0.25	-1	8	-1	guilty	At this moment	4	2	8	216	VLPFC	451.409602761269	0	2807.88441146631	-0.321317513115648	3.21678121334916e-05	41.4370151739114	2276.97627965044	0.41890853189854	n/a	n/a	n/a	n/a	2252.68650793651	4	8	0	0	1	0	0
304.418786215901	6.38817873859404	panas_none	310.806964954495	57	5	10	10	n/a	n/a	n/a	n/a	n/a	n/a	n/a	n/a	2000	0	BLOCKED	n/a	n/a	+	0	enthusiastic	At this moment	2	2	8	216	NONE	n/a	0.997503121098627	n/a	n/a	n/a	n/a	737	0.316679477325135	n/a	n/a	n/a	n/a	1768.424071991	8	1	0	1	0	0	1
311.791060180664	6.17146125400063	panas_none	317.962521434665	58	5	10	10	n/a	n/a	n/a	n/a	n/a	n/a	n/a	n/a	2000	0	BLOCKED	n/a	n/a	+	0	distressed	At this moment	4	2	8	216	NONE	n/a	1	n/a	n/a	n/a	n/a	n/a	1	n/a	n/a	n/a	n/a	n/a	0	2	0	1	0	0	1
318.946798258424	6.30505465388296	panas_none	325.251852912307	59	5	10	10	n/a	n/a	n/a	n/a	n/a	n/a	n/a	n/a	2000	0	BLOCKED	n/a	n/a	+	0	upset	At this moment	3	2	8	216	NONE	n/a	1	n/a	n/a	n/a	n/a	n/a	1	n/a	n/a	n/a	n/a	n/a	1	3	0	1	0	0	1
326.235966122031	14.211475132823	panas_none	340.447441254854	60	5	10	10	n/a	n/a	n/a	n/a	n/a	n/a	n/a	n/a	2000	0	BLOCKED	n/a	n/a	+	0	active	At this moment	1	2	8	216	NONE	n/a	1	n/a	n/a	n/a	n/a	n/a	1	n/a	n/a	n/a	n/a	n/a	14	4	0	1	0	0	1
341.433030517936	2.71746379756922	punish_rtpj	344.150494315505	61	3	11	10	750	250	250	250	0	0	0	0	2000	0	BLOCKED	0.25	1	7	1	proud	At this moment	3	2	8	216	RTPJ	389.44569003582	1	n/a	n/a	n/a	n/a	n/a	1	n/a	n/a	n/a	n/a	n/a	1	1	0	0	1	0	0
345.15133636415	2.71902553689483	punish_rtpj	347.870361901045	62	3	11	10	750	250	250	250	0	0	0	0	2000	0	BLOCKED	0.25	-1	10	-1	strong	At this moment	4	2	8	216	RTPJ	265.807716012001	1	n/a	n/a	n/a	n/a	n/a	1	n/a	n/a	n/a	n/a	n/a	2	2	0	0	1	0	0
348.876448064327	2.796894223094	punish_rtpj	351.673342287421	63	3	11	10	750	250	250	250	0	0	0	0	2000	0	BLOCKED	0.25	1	0	-1	inspired	At this moment	4	2	8	216	RTPJ	351.166332364082	1	n/a	n/a	n/a	n/a	n/a	1	n/a	n/a	n/a	n/a	n/a	3	3	0	0	1	0	0
352.662273298383	2.64720704686641	punish_rtpj	355.309480345249	64	3	11	10	750	250	250	250	0	0	0	0	2000	0	BLOCKED	0.25	1	1	-1	excited	At this moment	5	2	8	216	RTPJ	285.669906258583	1	n/a	n/a	n/a	n/a	n/a	1	n/a	n/a	n/a	n/a	n/a	0	4	0	0	1	0	0
356.310446162224	2.61884044849876	punish_rtpj	358.929286610723	65	3	11	10	750	250	250	250	0	0	0	0	2000	0	BLOCKED	0.25	-1	1	1	afraid	At this moment	4	2	8	216	RTPJ	280.339753270149	1	n/a	n/a	n/a	n/a	n/a	1	n/a	n/a	n/a	n/a	n/a	1	5	0	0	1	0	0
359.918776518941	2.73001412940022	punish_rtpj	362.648790648341	66	3	11	10	750	250	250	250	0	0	0	0	2000	0	BLOCKED	0.25	-1	6	-1	nervous	At this moment	4	2	8	216	RTPJ	492.079701185226	1	n/a	n/a	n/a	n/a	n/a	1	n/a	n/a	n/a	n/a	n/a	0	6	0	0	1	0	0
363.638524567246	2.58021623170373	punish_rtpj	366.21874079895	67	3	11	10	750	250	250	250	0	0	0	0	2000	0	BLOCKED	0.25	-1	8	-1	alert	At this moment	2	2	8	216	RTPJ	763.635421276093	1	n/a	n/a	n/a	n/a	n/a	1	n/a	n/a	n/a	n/a	n/a	2	7	0	0	1	0	0
367.224998333812	2.66306245446208	punish_rtpj	369.888060788274	68	3	11	10	750	250	250	250	0	0	0	0	2000	0	BLOCKED	0.25	-1	8	-1	proud	At this moment	2	2	8	216	RTPJ	288.515875339508	1	n/a	n/a	n/a	n/a	n/a	1	n/a	n/a	n/a	n/a	n/a	0	8	0	0	1	0	0
370.888852412581	6.53893716418742	panas_none	377.427789576769	69	5	12	10	n/a	n/a	n/a	n/a	n/a	n/a	n/a	n/a	2000	0	BLOCKED	n/a	n/a	+	0	interested	At this moment	3	2	8	216	NONE	n/a	1	n/a	n/a	n/a	n/a	n/a	1	n/a	n/a	n/a	n/a	n/a	5	1	0	1	0	0	0
378.416609513402	6.26675942826273	panas_none	384.683368941665	70	5	12	10	n/a	n/a	n/a	n/a	n/a	n/a	n/a	n/a	2000	0	BLOCKED	n/a	n/a	+	0	nervous	At this moment	4	2	8	216	NONE	n/a	1	n/a	n/a	n/a	n/a	n/a	0.957724827056111	n/a	n/a	n/a	n/a	2000.45454545455	9	2	0	1	0	0	0
385.674803883433	6.28140888690945	panas_none	391.956212770343	71	5	12	10	n/a	n/a	n/a	n/a	n/a	n/a	n/a	n/a	2000	0	BLOCKED	n/a	n/a	+	0	afraid	At this moment	2	2	8	216	NONE	n/a	1	n/a	n/a	n/a	n/a	n/a	1	n/a	n/a	n/a	n/a	n/a	15	3	0	1	0	0	0
392.960603200197	8.97022822403909	panas_none	401.930831424236	72	5	12	10	n/a	n/a	n/a	n/a	n/a	n/a	n/a	n/a	2000	0	BLOCKED	n/a	n/a	+	0	excited	At this moment	5	2	8	216	NONE	n/a	0	5956.56865175051	-3.73973594200131	0.000912613294683006	32.7652424375376	2176.95630461923	0.971560338201384	n/a	n/a	n/a	n/a	2070.91891891892	19	4	0	1	0	0	0
402.919570611715	2.56408296215534	punish_rtpj	405.483653573871	73	3	13	10	750	250	250	250	0	0	0	0	2000	0	BLOCKED	0.25	-1	6	-1	alert	At this moment	3	2	8	216	RTPJ	276.413366794586	0.998751560549313	n/a	n/a	n/a	n/a	2416	0.48347425057648	n/a	n/a	n/a	n/a	2274.7380952381	4	1	0	0	1	0	0
406.486514352798	2.54999592721464	punish_rtpj	409.036510280013	74	3	13	10	750	250	250	250	0	0	0	0	2000	0	BLOCKED	0.25	1	9	1	guilty	At this moment	1	2	8	216	RTPJ	222.206667780876	1	n/a	n/a	n/a	n/a	n/a	1	n/a	n/a	n/a	n/a	n/a	1	2	0	0	1	0	0
410.042630999684	2.61342707765101	punish_rtpj	412.656058077335	75	3	13	10	750	250	250	250	0	0	0	0	2000	0	BLOCKED	0.25	1	4	-1	attentive	At this moment	1	2	8	216	RTPJ	315.098586320877	0	5989.65204536636	-3.4816704779871	0.000792889283984463	26.219202742732	2216.76279650437	0.481936971560338	n/a	n/a	n/a	n/a	2301.60979228487	1	3	0	0	1	0	0
413.645407996893	2.66396338987352	punish_rtpj	416.309371386766	76	3	13	10	750	250	250	250	0	0	0	0	2000	0	BLOCKED	0.25	-1	6	-1	jittery	At this moment	4	2	8	216	RTPJ	237.406208276749	1	n/a	n/a	n/a	n/a	n/a	0.926979246733282	n/a	n/a	n/a	n/a	2216.97894736842	1	4	0	0	1	0	0
417.293185224891	2.65216448438167	punish_rtpj	419.945349709272	77	3	13	10	750	250	250	250	0	0	0	0	2000	0	BLOCKED	0.25	-1	2	1	interested	At this moment	3	2	8	216	RTPJ	462.856244206429	1	n/a	n/a	n/a	n/a	n/a	1	n/a	n/a	n/a	n/a	n/a	5	5	0	0	1	0	0
420.935448586464	2.69662838542462	punish_rtpj	423.632076971889	78	3	13	10	750	250	250	250	0	0	0	0	2000	0	BLOCKED	0.25	1	4	-1	inspired	At this moment	5	2	8	216	RTPJ	627.885065436363	1	n/a	n/a	n/a	n/a	n/a	1	n/a	n/a	n/a	n/a	n/a	1	6	0	0	1	0	0
424.64250419867	2.62552817583082	punish_rtpj	427.268032374501	79	3	13	10	750	250	250	250	0	0	0	0	2000	0	BLOCKED	0.25	-1	8	-1	guilty	At this moment	5	2	8	216	RTPJ	326.7250623703	1	n/a	n/a	n/a	n/a	n/a	1	n/a	n/a	n/a	n/a	n/a	2	7	0	0	1	0	0
428.257268751264	2.68058573865892	punish_rtpj	430.937854489923	80	3	13	10	750	250	250	250	0	0	0	0	2000	0	BLOCKED	0.25	1	4	-1	active	At this moment	5	2	8	216	RTPJ	437.52214884758	1	n/a	n/a	n/a	n/a	n/a	1	n/a	n/a	n/a	n/a	n/a	3	8	0	0	1	0	0
431.939922233939	6.45547985661028	panas_none	438.395402090549	81	5	14	10	n/a	n/a	n/a	n/a	n/a	n/a	n/a	n/a	2000	0	BLOCKED	n/a	n/a	+	0	jittery	At this moment	2	2	8	216	NONE	n/a	1	n/a	n/a	n/a	n/a	n/a	1	n/a	n/a	n/a	n/a	n/a	0	1	0	1	0	0	0
439.39704775238	6.21907684254643	panas_none	445.616124594927	82	5	14	10	n/a	n/a	n/a	n/a	n/a	n/a	n/a	n/a	2000	0	BLOCKED	n/a	n/a	+	0	determined	At this moment	3	2	8	216	NONE	n/a	1	n/a	n/a	n/a	n/a	n/a	1	n/a	n/a	n/a	n/a	n/a	0	2	0	1	0	0	0
446.605666690469	6.19980599033829	panas_none	452.805472680807	83	5	14	10	n/a	n/a	n/a	n/a	n/a	n/a	n/a	n/a	2000	0	BLOCKED	n/a	n/a	+	0	attentive	At this moment	3	2	8	216	NONE	n/a	1	n/a	n/a	n/a	n/a	n/a	1	n/a	n/a	n/a	n/a	n/a	0	3	0	1	0	0	0
453.813055349231	6.74888017761708	panas_none	460.561935526848	84	5	14	10	n/a	n/a	n/a	n/a	n/a	n/a	n/a	n/a	2000	0	BLOCKED	n/a	n/a	+	0	irritable	At this moment	5	2	8	216	NONE	n/a	1	n/a	n/a	n/a	n/a	n/a	1	n/a	n/a	n/a	n/a	n/a	5	4	0	1	0	0	0
461.545848802924	2.75233264720435	reward_rtpj	464.298181450129	85	1	15	10	750	250	250	250	0	0	0	0	2000	0	BLOCKED	0.75	1	3	-1	interested	At this moment	2	2	8	216	RTPJ	347.39650785923	1	n/a	n/a	n/a	n/a	n/a	1	n/a	n/a	n/a	n/a	n/a	1	1	1	0	0	0	0
465.303779944658	2.63062278091905	reward_rtpj	467.934402725577	86	1	15	10	750	250	250	250	0	0	0	0	2000	0	BLOCKED	0.75	1	1	-1	strong	At this moment	4	2	8	216	RTPJ	242.056869268417	1	n/a	n/a	n/a	n/a	n/a	1	n/a	n/a	n/a	n/a	n/a	2	2	1	0	0	0	0
468.940772745132	2.71360194039346	reward_rtpj	471.654374685526	87	1	15	10	750	250	250	250	0	0	0	0	2000	0	BLOCKED	0.75	-1	1	1	active	At this moment	3	2	8	216	RTPJ	273.391794919968	1	n/a	n/a	n/a	n/a	n/a	1	n/a	n/a	n/a	n/a	n/a	0	3	1	0	0	0	0
472.643355062723	2.6637870815992	reward_rtpj	475.307142144322	88	1	15	10	750	250	250	250	0	0	0	0	2000	0	BLOCKED	0.75	-1	0	1	irritable	At this moment	2	2	8	216	RTPJ	507.740111708641	1	n/a	n/a	n/a	n/a	n/a	1	n/a	n/a	n/a	n/a	n/a	2	4	1	0	0	0	0
476.307799421787	2.68557103264334	reward_rtpj	478.993370454431	89	1	15	10	750	250	250	250	0	0	0	0	2000	0	BLOCKED	0.75	-1	2	1	jittery	At this moment	3	2	8	216	RTPJ	493.161881685257	0	10591.2914377209	-7.73247653216938	0.00172961719489215	31.5183544557291	2057.39950062422	0.953112990007686	n/a	n/a	n/a	n/a	1912.52459016393	6	5	1	0	0	0	0
479.984294101953	2.64530221188073	reward_rtpj	482.629596313834	90	1	15	10	750	250	250	250	0	0	0	0	2000	0	BLOCKED	0.75	-1	3	1	scared	At this moment	4	2	8	216	RTPJ	347.268155455589	0	8370.19519677836	-5.65444489508932	0.00124250969459251	52.1987995950025	2040.34706616729	0.44043043812452	n/a	n/a	n/a	n/a	2113.38461538462	1	6	1	0	0	0	0
483.630486670852	2.61884256410599	reward_rtpj	486.249329234958	91	1	15	10	750	250	250	250	0	0	0	0	2000	0	BLOCKED	0.75	-1	2	1	excited	At this moment	3	2	8	216	RTPJ	257.502183556557	0	12958.8141145462	-10.1985240439583	0.00232326719198849	28.6463302810658	1899.06991260924	0	1367.43093731666	1.22456547649551	-0.000537171175683046	31.730705704896	1944.41199077633	0	7	1	0	0	0	0
487.25008736074	2.56867367827891	reward_rtpj	489.818761039019	92	1	15	10	750	250	250	250	0	0	0	0	2000	0	BLOCKED	0.75	-1	2	1	enthusiastic	At this moment	5	2	8	216	RTPJ	414.754397273064	0.549313358302122	n/a	n/a	n/a	n/a	1767.93628808864	0.65564950038432	n/a	n/a	n/a	n/a	1748.32589285714	4	8	1	0	0	0	0
490.807722727656	6.31727634668351	panas_none	497.12499907434	93	5	16	10	n/a	n/a	n/a	n/a	n/a	n/a	n/a	n/a	2000	0	BLOCKED	n/a	n/a	+	0	distressed	At this moment	4	2	8	216	NONE	n/a	0.998751560549313	n/a	n/a	n/a	n/a	465	0.335895465026902	n/a	n/a	n/a	n/a	1405.6724537037	1	1	0	1	0	1	0
498.108941617608	6.15635233604905	panas_none	504.265293953657	94	5	16	10	n/a	n/a	n/a	n/a	n/a	n/a	n/a	n/a	2000	0	BLOCKED	n/a	n/a	+	0	active	At this moment	3	2	8	216	NONE	n/a	1	n/a	n/a	n/a	n/a	n/a	1	n/a	n/a	n/a	n/a	n/a	0	2	0	1	0	1	0
505.269072946191	6.33445265603069	panas_none	511.603525602222	95	5	16	10	n/a	n/a	n/a	n/a	n/a	n/a	n/a	n/a	2000	0	BLOCKED	n/a	n/a	+	0	interested	At this moment	3	2	8	216	NONE	n/a	1	n/a	n/a	n/a	n/a	n/a	1	n/a	n/a	n/a	n/a	n/a	0	3	0	1	0	1	0
512.592692513704	15.1735713119507	panas_none	527.766263825655	96	5	16	10	n/a	n/a	n/a	n/a	n/a	n/a	n/a	n/a	2000	0	BLOCKED	n/a	n/a	+	0	proud	At this moment	1	2	8	216	NONE	n/a	1	n/a	n/a	n/a	n/a	n/a	1	n/a	n/a	n/a	n/a	n/a	4	4	0	1	0	1	0
