onset	duration	trial_type	offset	trial	block	blockCntr	frequency	amplitude_1	amplitude_2	amplitude_3	amplitude_4	amplitude_5	amplitude_6	amplitude_7	amplitude_8	transition	sham	mode	rewardFraction	guess	outcome	correct	word	when	answer	runNr	scanNr	subjectNr	target	reactionTime	outcomeEyeClosed	outcomeParms_1	outcomeParms_2	outcomeParms_3	outcomeSigma	outcomePupilArea	guessEyeClosed	guessParms_1	guessParms_2	guessParms_3	guessSigma	guessPupilArea	nrBlinks	trialInBlock	isReward	isPanas	isPunish	beforePanasReward	beforePanasVLPFC
20.3558409951925	2.50668103456497	punish_vlpfc	22.8625220297575	1	4	1	10	0	0	0	0	250	250	250	750	2000	0	BLOCKED	0.25	-1	2	1	alert	At this moment	4	3	11	228	VLPFC	829.13871884346	0.374531835205993	n/a	n/a	n/a	n/a	1789.85828343313	0	1705.96784033692	0.147446633860061	7.32873653787442e-05	27.7623205510601	1895.64181398924	1	1	0	0	1	0	0
23.8634755061865	2.51852544021606	punish_vlpfc	26.3820009464025	2	4	1	10	0	0	0	0	250	250	250	750	2000	0	BLOCKED	0.25	1	1	-1	determined	At this moment	5	3	11	228	VLPFC	356.514141082764	0.374531835205993	n/a	n/a	n/a	n/a	2035.98203592814	0	635.639195861622	1.91636512092245	-0.000654245314282622	22.4061405538134	1737.43966179862	1	2	0	0	1	0	0
27.382996384263	2.51863757252693	punish_vlpfc	29.90163395679	3	4	1	10	0	0	0	0	250	250	250	750	2000	0	BLOCKED	0.25	1	3	-1	upset	At this moment	4	3	11	228	VLPFC	274.579345583916	0.374531835205993	n/a	n/a	n/a	n/a	2335.51097804391	0.230591852421214	1239.83925549968	1.15534658787391	-0.000358208559798856	17.4917626533869	1960	2	3	0	0	1	0	0
30.885816967845	2.51861183142662	punish_vlpfc	33.4044287992716	4	4	1	10	0	0	0	0	250	250	250	750	2000	0	BLOCKED	0.25	-1	8	-1	guilty	At this moment	3	3	11	228	VLPFC	256.692494750023	0.374531835205993	n/a	n/a	n/a	n/a	2287.46906187625	0.230591852421214	1480.21988167183	0.968540918169181	-0.000311376778583744	16.5585561080552	2070.52947052947	3	4	0	0	1	0	0
34.4051544851065	2.51881917023659	punish_vlpfc	36.9239736553431	5	4	1	10	0	0	0	0	250	250	250	750	2000	0	BLOCKED	0.25	1	0	-1	proud	At this moment	3	3	11	228	VLPFC	291.695375561714	0.374531835205993	n/a	n/a	n/a	n/a	2267.16766467066	0.230591852421214	1505.61951302327	1.08671159905325	-0.000382315289505896	13.2121494613009	2149.43156843157	2	5	0	0	1	0	0
37.9080857903957	2.51871832180023	punish_vlpfc	40.426804112196	6	4	1	10	0	0	0	0	250	250	250	750	2000	0	BLOCKED	0.25	-1	7	-1	excited	At this moment	2	3	11	228	VLPFC	290.749656677246	0.470661672908864	n/a	n/a	n/a	n/a	2159.54481132075	0.230591852421214	1421.82116358011	1.19525371231374	-0.00043310219868719	15.0184557983599	2102.30669330669	2	6	0	0	1	0	0
41.4109906493425	2.51862910962105	punish_vlpfc	43.9296197589636	7	4	1	10	0	0	0	0	250	250	250	750	2000	0	BLOCKED	0.25	-1	8	-1	enthusiastic	At this moment	3	3	11	228	VLPFC	257.392792105675	0.443196004993758	n/a	n/a	n/a	n/a	2162.13004484305	0.253651037663336	n/a	n/a	n/a	n/a	1974.63645726056	2	7	0	0	1	0	0
44.9138024175167	2.51872325837613	punish_vlpfc	47.4325256758928	8	4	1	10	0	0	0	0	250	250	250	750	2000	0	BLOCKED	0.25	-1	2	1	ashamed	At this moment	1	3	11	228	VLPFC	323.116372704506	0.406991260923845	n/a	n/a	n/a	n/a	1928.18315789474	0.230591852421214	1272.69513737329	1.41777621237138	-0.000510755086122661	27.2656361114781	2037.78421578422	2	8	0	0	1	0	0
48.4332432515621	6.02163693273067	panas_none	54.4548801842928	9	5	2	10	n/a	n/a	n/a	n/a	n/a	n/a	n/a	n/a	2000	0	BLOCKED	n/a	n/a	+	0	strong	At this moment	5	3	11	228	NONE	n/a	0	1604.44765562151	-0.58395669101936	0.000124576287454457	14.0755138501907	933.495630461923	0	1388.55114579223	0.322122978076726	-0.000261534193084853	133.578156745158	1440.50653343582	3	1	0	1	0	0	1
55.4390328702927	6.02144299352169	panas_none	61.4604758638144	10	5	2	10	n/a	n/a	n/a	n/a	n/a	n/a	n/a	n/a	2000	0	BLOCKED	n/a	n/a	+	0	guilty	At this moment	1	3	11	228	NONE	n/a	0	-1851.94723779949	3.17565065464241	-0.000804868762993408	28.565067891066	1225.04993757803	0.229823212913144	1371.76585809929	0.015841209911614	3.37671595613842e-05	17.115063119878	1411.33233532934	4	2	0	1	0	0	1
62.445013607502	6.02122895503044	panas_none	68.4662425625324	11	5	2	10	n/a	n/a	n/a	n/a	n/a	n/a	n/a	n/a	2000	0	BLOCKED	n/a	n/a	+	0	scared	At this moment	1	3	11	228	NONE	n/a	0.192259675405743	3394.81927154542	-2.44011478285407	0.000601921735105942	8.80727359793203	942.610510046368	0	1290.09456293218	-0.539373795260308	0.00033560740318888	10.1218554073975	1114.25595695619	1	3	0	1	0	0	1
69.4503345983028	10.3251492099762	panas_none	79.775483808279	12	5	2	10	n/a	n/a	n/a	n/a	n/a	n/a	n/a	n/a	2000	0	BLOCKED	n/a	n/a	+	0	jittery	At this moment	3	3	11	228	NONE	n/a	0	1081.88687275895	0.363596794427435	2.72828677404772e-06	11.6361700659335	1857.85642946317	0	540.852357757945	1.05704969087212	-0.000252907662574396	17.5367475892876	1235.61260568793	2	4	0	1	0	0	1
80.7761890422106	2.51874124193192	reward_vlpfc	83.2949302841425	13	2	3	10	0	0	0	0	250	250	250	750	2000	0	BLOCKED	0.75	1	10	1	attentive	At this moment	5	3	11	228	VLPFC	274.765527367592	0.374531835205993	n/a	n/a	n/a	n/a	1791.00598802395	0.234435049961568	655.461052532769	1.76254883947768	-0.000590059343671131	23.2774282647951	1687.52710843373	2	1	1	0	0	0	0
84.2791083585024	2.51874335765839	reward_vlpfc	86.7978517161608	14	2	3	10	0	0	0	0	250	250	250	750	2000	0	BLOCKED	0.75	-1	3	1	strong	At this moment	3	3	11	228	VLPFC	356.588895797729	0.433208489388265	n/a	n/a	n/a	n/a	1770.54845814978	0.230591852421214	658.052594419856	1.52004242500333	-0.000460340982452361	37.4243345743962	1594.11688311688	2	2	1	0	0	0	0
87.7819776031971	2.51886007392407	reward_vlpfc	90.3008376771212	15	2	3	10	0	0	0	0	250	250	250	750	2000	0	BLOCKED	0.75	1	7	1	nervous	At this moment	2	3	11	228	VLPFC	291.053259968758	0.374531835205993	n/a	n/a	n/a	n/a	1829.37325349301	0.231360491929285	1179.33557199687	0.820829498988045	-0.000217501967288875	23.4974543732335	1703.477	4	3	1	0	0	0	0
91.3014960130453	2.51886536300182	reward_vlpfc	93.8203613760471	16	2	3	10	0	0	0	0	250	250	250	750	2000	0	BLOCKED	0.75	-1	1	1	guilty	At this moment	5	3	11	228	VLPFC	290.494009375572	0.374531835205993	n/a	n/a	n/a	n/a	1727.90419161677	0.292083013066872	n/a	n/a	n/a	n/a	1674.33441910966	2	4	1	0	0	0	0
94.8042633513212	2.51878708207607	reward_vlpfc	97.3230504333973	17	2	3	10	0	0	0	0	250	250	250	750	2000	0	BLOCKED	0.75	1	10	1	inspired	At this moment	3	3	11	228	VLPFC	306.322987318039	0.374531835205993	n/a	n/a	n/a	n/a	1715.69461077844	0.230591852421214	981.993339614545	1.55717443961671	-0.000723063010300581	46.6989577462018	1689.28771228771	2	5	1	0	0	0	0
98.3071780836582	2.51880964958669	reward_vlpfc	100.825987733245	18	2	3	10	0	0	0	0	250	250	250	750	2000	0	BLOCKED	0.75	-1	4	1	distressed	At this moment	3	3	11	228	VLPFC	323.169617891312	0.374531835205993	n/a	n/a	n/a	n/a	1671.11576846307	0.250576479631053	n/a	n/a	n/a	n/a	1597.71897435897	2	6	1	0	0	0	0
101.810083647847	2.51860689473152	reward_vlpfc	104.328690542579	19	2	3	10	0	0	0	0	250	250	250	750	2000	0	BLOCKED	0.75	1	4	-1	upset	At this moment	4	3	11	228	VLPFC	323.551149606705	0.374531835205993	n/a	n/a	n/a	n/a	1775.81636726547	0.295926210607225	n/a	n/a	n/a	n/a	1567.50873362445	2	7	1	0	0	0	0
105.312801972508	2.51897537946702	reward_vlpfc	107.831777351975	20	2	3	10	0	0	0	0	250	250	250	750	2000	0	BLOCKED	0.75	1	3	-1	ashamed	At this moment	2	3	11	228	VLPFC	323.306785941124	0.374531835205993	n/a	n/a	n/a	n/a	2070.4870259481	0.269792467332821	n/a	n/a	n/a	n/a	1747.06842105263	2	8	1	0	0	0	0
108.817372946858	6.01988971555232	panas_none	114.837262662411	21	5	4	10	n/a	n/a	n/a	n/a	n/a	n/a	n/a	n/a	2000	0	BLOCKED	n/a	n/a	+	0	attentive	At this moment	5	3	11	228	NONE	n/a	0.373283395755306	n/a	n/a	n/a	n/a	909.802788844622	0	1226.66049499693	0.172520858155245	-0.000141406699630788	160.533756323617	1256.5142198309	4	1	0	1	0	1	1
115.821339535594	6.02179032123088	panas_none	121.843129856825	22	5	4	10	n/a	n/a	n/a	n/a	n/a	n/a	n/a	n/a	2000	0	BLOCKED	n/a	n/a	+	0	interested	At this moment	5	3	11	228	NONE	n/a	0.541822721598002	n/a	n/a	n/a	n/a	952.343324250681	0	737.725409940481	0.481092657441669	-0.000267767449668578	13.9964656278798	915.8285933897	4	2	0	1	0	1	1
122.827123512626	6.02165350580216	panas_none	128.848777018428	23	5	4	10	n/a	n/a	n/a	n/a	n/a	n/a	n/a	n/a	2000	0	BLOCKED	n/a	n/a	+	0	active	At this moment	5	3	11	228	NONE	n/a	0.18976279650437	1802.27335017414	-0.983877614076146	0.000248206467113361	10.0664170353726	836.471494607088	0	867.700172074275	0.190433671367015	-0.000153318105262314	20.303772721083	897.237509607994	2	3	0	1	0	1	1
129.849474494934	6.33853032040597	panas_none	136.18800481534	24	5	4	10	n/a	n/a	n/a	n/a	n/a	n/a	n/a	n/a	2000	0	BLOCKED	n/a	n/a	+	0	distressed	At this moment	1	3	11	228	NONE	n/a	0.374531835205993	n/a	n/a	n/a	n/a	1635.31536926148	0.59185242121445	n/a	n/a	n/a	n/a	1052.00564971751	6	4	0	1	0	1	1
137.188724154115	2.51886007380486	punish_vlpfc	139.70758422792	25	4	5	10	0	0	0	0	250	250	250	750	2000	0	BLOCKED	0.25	-1	6	-1	attentive	At this moment	2	3	11	228	VLPFC	489.675021052361	0.374531835205993	n/a	n/a	n/a	n/a	1817.48103792415	0.230591852421214	746.67719266326	1.12717737699335	-0.000289878104745037	19.3300024425878	1449.69130869131	2	1	0	0	1	0	0
140.708260194778	2.51875816750527	punish_vlpfc	143.227018362284	26	4	5	10	0	0	0	0	250	250	250	750	2000	0	BLOCKED	0.25	-1	4	1	interested	At this moment	4	3	11	228	VLPFC	323.381540775299	0.374531835205993	n/a	n/a	n/a	n/a	1891.13572854291	0.230591852421214	1008.97064176158	1.3252113044329	-0.000468517753054834	32.1596894107642	1771.14085914086	2	2	0	0	1	0	0
144.211152006865	2.51873066329955	punish_vlpfc	146.729882670164	27	4	5	10	0	0	0	0	250	250	250	750	2000	0	BLOCKED	0.25	1	7	1	enthusiastic	At this moment	2	3	11	228	VLPFC	356.333953857422	0.374531835205993	n/a	n/a	n/a	n/a	1684.8123752495	0.230591852421214	1147.08210129616	0.889147482900941	-0.000244321843580765	12.0456043399841	1715.3046953047	2	3	0	0	1	0	0
147.71404064548	2.51869187557696	punish_vlpfc	150.232732521057	28	4	5	10	0	0	0	0	250	250	250	750	2000	0	BLOCKED	0.25	-1	8	-1	alert	At this moment	1	3	11	228	VLPFC	306.967571258545	0.374531835205993	n/a	n/a	n/a	n/a	1956.10379241517	0.230591852421214	862.09326018101	1.27586417652466	-0.000412384448265954	20.2015334164616	1625.65534465534	2	4	0	0	1	0	0
151.216845361233	2.51883891677855	punish_vlpfc	153.735684278011	29	4	5	10	0	0	0	0	250	250	250	750	2000	0	BLOCKED	0.25	1	3	-1	irritable	At this moment	5	3	11	228	VLPFC	440.058633208275	0.374531835205993	n/a	n/a	n/a	n/a	2050.48303393214	0.230591852421214	1418.42092844133	0.421857770344504	8.08184890993862e-06	16.4866352047492	1824.8981018981	4	5	0	0	1	0	0
154.719998109937	2.51855717587472	punish_vlpfc	157.238555285811	30	4	5	10	0	0	0	0	250	250	250	750	2000	0	BLOCKED	0.25	-1	9	-1	afraid	At this moment	2	3	11	228	VLPFC	339.328998208046	0.374531835205993	n/a	n/a	n/a	n/a	2049.71856287425	0.36510376633359	n/a	n/a	n/a	n/a	1908.37288135593	4	6	0	0	1	0	0
158.22264661634	2.51863298845291	punish_vlpfc	160.741279604793	31	4	5	10	0	0	0	0	250	250	250	750	2000	0	BLOCKED	0.25	-1	7	-1	ashamed	At this moment	1	3	11	228	VLPFC	290.191816687584	0.374531835205993	n/a	n/a	n/a	n/a	2123.96806387226	0.244427363566487	1230.32950527627	1.07295521863357	-0.000356478951609674	28.7257787679148	1823.80773143438	2	7	0	0	1	0	0
161.725365646243	2.51864815104008	punish_vlpfc	164.244013797283	32	4	5	10	0	0	0	0	250	250	250	750	2000	0	BLOCKED	0.25	-1	9	-1	determined	At this moment	5	3	11	228	VLPFC	306.590976238251	0.374531835205993	n/a	n/a	n/a	n/a	2175.28143712575	0.255188316679477	n/a	n/a	n/a	n/a	1888.0350877193	4	8	0	0	1	0	0
165.245056133151	6.02144052517414	panas_none	171.266496658325	33	5	6	10	n/a	n/a	n/a	n/a	n/a	n/a	n/a	n/a	2000	0	BLOCKED	n/a	n/a	+	0	excited	At this moment	5	3	11	228	NONE	n/a	0	2773.63293677763	-2.03700566968071	0.000556710629454744	11.7889869382155	980.710362047441	0.220599538816295	-468.273316966743	4.03098454727238	-0.00205342907507784	63.172361788583	1339.99013806706	6	1	0	1	0	0	1
172.250594336033	6.0215963817835	panas_none	178.272190717816	34	5	6	10	n/a	n/a	n/a	n/a	n/a	n/a	n/a	n/a	2000	0	BLOCKED	n/a	n/a	+	0	irritable	At this moment	1	3	11	228	NONE	n/a	0	1846.25325431962	-0.927658276109884	0.000252978952851776	24.6502968070714	1027.22846441948	0	1248.16627811852	0.345648784504932	-0.000257580770973335	43.3526458521666	1319.05149884704	3	2	0	1	0	0	1
179.256327536106	6.02156006240844	panas_none	185.277887598515	35	5	6	10	n/a	n/a	n/a	n/a	n/a	n/a	n/a	n/a	2000	0	BLOCKED	n/a	n/a	+	0	inspired	At this moment	5	3	11	228	NONE	n/a	0.481897627965044	n/a	n/a	n/a	n/a	963.778313253012	0	1086.67915391624	0.216836877296933	-7.14938774086822e-05	30.2643273147307	1207.56495003843	4	3	0	1	0	0	1
186.262257496476	5.15393989574909	panas_none	191.416197392225	36	5	6	10	n/a	n/a	n/a	n/a	n/a	n/a	n/a	n/a	2000	0	BLOCKED	n/a	n/a	+	0	guilty	At this moment	2	3	11	228	NONE	n/a	0.3083645443196	n/a	n/a	n/a	n/a	1873.02527075812	0.230591852421214	866.112009128957	0.877018476054371	-0.000159528289924364	40.2239971020958	1447.91108891109	3	4	0	1	0	0	1
192.417016521573	2.51876345670223	reward_vlpfc	194.935779978275	37	2	7	10	0	0	0	0	250	250	250	750	2000	0	BLOCKED	0.75	-1	0	1	hostile	At this moment	4	3	11	228	VLPFC	289.464720249176	0.374531835205993	n/a	n/a	n/a	n/a	1809.65668662675	0.230591852421214	690.487100591791	1.59522276290922	-0.000484955765636852	18.335782372433	1691.66733266733	2	1	1	0	0	0	0
195.93662061727	2.51858467996121	reward_vlpfc	198.455205297232	38	2	7	10	0	0	0	0	250	250	250	750	2000	0	BLOCKED	0.75	1	10	1	determined	At this moment	1	3	11	228	VLPFC	323.304670333862	0.374531835205993	n/a	n/a	n/a	n/a	1716.05389221557	0.255956956187548	n/a	n/a	n/a	n/a	1684.44731404959	2	2	1	0	0	0	0
199.439587889433	2.51853601884841	reward_vlpfc	201.958123908281	39	2	7	10	0	0	0	0	250	250	250	750	2000	0	BLOCKED	0.75	-1	7	-1	upset	At this moment	5	3	11	228	VLPFC	322.843447208405	0.374531835205993	n/a	n/a	n/a	n/a	1942.34930139721	0.250576479631053	n/a	n/a	n/a	n/a	1628.93435897436	4	3	1	0	0	0	0
202.958935985208	2.51875323092938	reward_vlpfc	205.477689216137	40	2	7	10	0	0	0	0	250	250	250	750	2000	0	BLOCKED	0.75	1	8	1	excited	At this moment	1	3	11	228	VLPFC	261.660515904427	0.374531835205993	n/a	n/a	n/a	n/a	2051.92814371257	0.241352805534204	1243.77682390814	1.25805887144363	-0.000477398079448048	26.8928049069639	1900.21073961499	2	4	1	0	0	0	0
206.461710023403	2.51868870186806	reward_vlpfc	208.980398725271	41	2	7	10	0	0	0	0	250	250	250	750	2000	0	BLOCKED	0.75	1	10	1	guilty	At this moment	2	3	11	228	VLPFC	340.058209896088	0	18664.6109592858	-14.8364174893747	0.00322371958238883	15.663809649915	1831.0986267166	0.230591852421214	1273.62112368535	1.14262458485214	-0.000410337580578993	21.1210984240028	1913.8041958042	1	5	1	0	0	0	0
209.981743253946	2.51839426672461	reward_vlpfc	212.500137520671	42	2	7	10	0	0	0	0	250	250	250	750	2000	0	BLOCKED	0.75	1	6	1	interested	At this moment	2	3	11	228	VLPFC	356.346295237541	0	7984.15302462129	-4.97743855985181	0.00095925045755736	13.1046572545946	1784.51061173533	0.230591852421214	944.061408232542	1.53941592397455	-0.000597397732034238	18.0668016119041	1758.97202797203	1	6	1	0	0	0	0
213.500808903456	2.5187042170763	reward_vlpfc	216.019513120532	43	2	7	10	0	0	0	0	250	250	250	750	2000	0	BLOCKED	0.75	-1	9	-1	active	At this moment	2	3	11	228	VLPFC	356.532124519348	0	-309.50485067616	2.4274600525862	-0.00056599891389709	26.8321613211236	2178.44569288389	0.230591852421214	1256.7045538736	1.07552669778476	-0.000329764915982121	19.8563009003355	1924.79320679321	1	7	1	0	0	0	0
217.003635481477	2.51873172116279	reward_vlpfc	219.52236720264	44	2	7	10	0	0	0	0	250	250	250	750	2000	0	BLOCKED	0.75	-1	3	1	determined	At this moment	2	3	11	228	VLPFC	407.451079726219	0	2410.36275105554	0.352517373046049	-0.000270358716753508	50.3226900384079	1943.90262172285	0.230591852421214	1249.94549742295	1.31774859686863	-0.000501810779885616	30.5703700764248	1906.01798201798	1	8	1	0	0	0	0
220.523188095212	6.02161648094653	panas_none	226.544804576159	45	5	8	10	n/a	n/a	n/a	n/a	n/a	n/a	n/a	n/a	2000	0	BLOCKED	n/a	n/a	+	0	inspired	At this moment	5	3	11	228	NONE	n/a	0	1113.66098433366	-0.506552274880988	0.000225274792379399	16.055096574356	1055.50062421973	0.0514988470407379	1288.28934711063	0.524244277848715	-0.000424752014348661	61.9951134566397	1368.32739059968	6	1	0	1	0	1	1
227.545618063688	6.02179314219953	panas_none	233.567411205888	46	5	8	10	n/a	n/a	n/a	n/a	n/a	n/a	n/a	n/a	2000	0	BLOCKED	n/a	n/a	+	0	interested	At this moment	5	3	11	228	NONE	n/a	0.258426966292135	n/a	n/a	n/a	n/a	1133.52188552189	0.229823212913144	1352.47233669841	0.129100977700995	-5.85583293264115e-05	59.5983711978234	1413.18063872255	3	2	0	1	0	1	1
234.568029343367	6.02150611197948	panas_none	240.589535455346	47	5	8	10	n/a	n/a	n/a	n/a	n/a	n/a	n/a	n/a	2000	0	BLOCKED	n/a	n/a	+	0	afraid	At this moment	1	3	11	228	NONE	n/a	0.0811485642946317	4547.89809440335	-3.27326753336987	0.000747495241875739	12.2329978809282	1009.27038043478	0.229823212913144	1356.41928210513	-0.187348017024868	-4.51142467807671e-05	51.7045962130856	1122.92814371257	6	3	0	1	0	1	1
241.573591524243	11.0090079543591	panas_none	252.582599478602	48	5	8	10	n/a	n/a	n/a	n/a	n/a	n/a	n/a	n/a	2000	0	BLOCKED	n/a	n/a	+	0	ashamed	At this moment	5	3	11	228	NONE	n/a	0	1385.86936073928	0.228225069498185	6.92139808343036e-06	14.8024071371899	1896.20599250936	0.230591852421214	1230.73459511062	0.473233543304472	-5.05701073445999e-05	19.7105545137004	1597.67432567433	3	4	0	1	0	1	1
253.583343853116	2.51918025016784	reward_rtpj	256.102524103284	49	1	9	10	750	250	250	250	0	0	0	0	2000	0	BLOCKED	0.75	1	9	1	jittery	At this moment	5	3	11	228	RTPJ	607.311937093735	0.374531835205993	n/a	n/a	n/a	n/a	1846.35728542914	0.230591852421214	596.950812313651	1.68380849511501	-0.000491062213704749	29.3154662324095	1592.88911088911	2	1	1	0	0	0	0
257.103026934981	2.51868905472753	reward_rtpj	259.621715989709	50	1	9	10	750	250	250	250	0	0	0	0	2000	0	BLOCKED	0.75	-1	9	-1	enthusiastic	At this moment	1	3	11	228	RTPJ	339.618496656418	0.374531835205993	n/a	n/a	n/a	n/a	1967.44910179641	0.230591852421214	755.788539951381	1.53162084236388	-0.000562614241535557	29.3673015283505	1612.89310689311	2	2	1	0	0	0	0
260.605790041924	2.5187095063925	reward_rtpj	263.124499548316	51	1	9	10	750	250	250	250	0	0	0	0	2000	0	BLOCKED	0.75	1	10	1	proud	At this moment	5	3	11	228	RTPJ	289.404070258141	0.374531835205993	n/a	n/a	n/a	n/a	1881.13173652695	0.230591852421214	1185.73304230485	1.09350868398722	-0.000363687963114007	16.6418310377299	1845.53946053946	2	3	1	0	0	0	0
264.108606746793	2.51867036581035	reward_rtpj	266.627277112603	52	1	9	10	750	250	250	250	0	0	0	0	2000	0	BLOCKED	0.75	1	6	1	active	At this moment	1	3	11	228	RTPJ	323.686554431915	0.374531835205993	n/a	n/a	n/a	n/a	1739.73453093812	0.230591852421214	1148.65984673914	1.23040559756118	-0.000427400823846629	13.6022221647486	1861.44855144855	2	4	1	0	0	0	0
267.614111803532	2.51614739120004	reward_rtpj	270.130259194732	53	1	9	10	750	250	250	250	0	0	0	0	2000	0	BLOCKED	0.75	1	3	-1	inspired	At this moment	4	3	11	228	RTPJ	387.365309238434	0.374531835205993	n/a	n/a	n/a	n/a	2027.53493013972	0.230591852421214	991.692963163248	1.07160556538526	-0.000252622631812021	27.1084575929998	1711.61838161838	4	5	1	0	0	0	0
271.131036715269	2.51876028323176	reward_rtpj	273.649796998501	54	1	9	10	750	250	250	250	0	0	0	0	2000	0	BLOCKED	0.75	-1	1	1	attentive	At this moment	2	3	11	228	RTPJ	256.348693132401	0.374531835205993	n/a	n/a	n/a	n/a	1802.70459081836	0.448116833205227	n/a	n/a	n/a	n/a	1836.97632311978	4	6	1	0	0	0	0
274.633823447466	2.51879413449763	reward_rtpj	277.152617581964	55	1	9	10	750	250	250	250	0	0	0	0	2000	0	BLOCKED	0.75	-1	2	1	irritable	At this moment	5	3	11	228	RTPJ	406.839641809464	0.374531835205993	n/a	n/a	n/a	n/a	2018.88423153693	0.230591852421214	1124.11439566716	1.14470250868338	-0.000319100362036615	20.1274636525126	1860.06993006993	3	7	1	0	0	0	0
278.13703719902	2.51842423915866	reward_rtpj	280.655461438179	56	1	9	10	750	250	250	250	0	0	0	0	2000	0	BLOCKED	0.75	-1	3	1	ashamed	At this moment	2	3	11	228	RTPJ	289.098351240158	0.374531835205993	n/a	n/a	n/a	n/a	2014.14171656687	0.230591852421214	1294.23960555281	1.16328487886089	-0.000424483380201721	20.5304986104503	1918.40859140859	2	8	1	0	0	0	0
281.656268226027	6.02157487213611	panas_none	287.677843098164	57	5	10	10	n/a	n/a	n/a	n/a	n/a	n/a	n/a	n/a	2000	0	BLOCKED	n/a	n/a	+	0	inspired	At this moment	5	3	11	228	NONE	n/a	0.154806491885144	2095.251497672	-1.52710191716597	0.000496957622401046	10.9163556207699	1065.92762186115	0.229823212913144	-117.381023745319	3.66403602669066	-0.00195893591481543	32.843840405522	1433.29840319361	3	1	0	1	0	1	0
288.661872720838	6.02162000715731	panas_none	294.683492727995	58	5	10	10	n/a	n/a	n/a	n/a	n/a	n/a	n/a	n/a	2000	0	BLOCKED	n/a	n/a	+	0	scared	At this moment	1	3	11	228	NONE	n/a	0.411985018726592	n/a	n/a	n/a	n/a	1073.30148619958	0	917.709179724965	0.317520292703899	-3.14756293225848e-05	16.6656883757362	1161.59492697925	4	2	0	1	0	1	0
295.667654582024	6.02192149484159	panas_none	301.689576076865	59	5	10	10	n/a	n/a	n/a	n/a	n/a	n/a	n/a	n/a	2000	0	BLOCKED	n/a	n/a	+	0	jittery	At this moment	3	3	11	228	NONE	n/a	0	8207.97412881181	-6.41605001546641	0.00145138129841824	13.5391594641808	1199.40823970037	0.746348962336664	n/a	n/a	n/a	n/a	1150.96060606061	8	3	0	1	0	1	0
302.673523539662	5.90460510778428	panas_none	308.578128647447	60	5	10	10	n/a	n/a	n/a	n/a	n/a	n/a	n/a	n/a	2000	0	BLOCKED	n/a	n/a	+	0	active	At this moment	1	3	11	228	NONE	n/a	0.299625468164794	n/a	n/a	n/a	n/a	1891.35472370766	0.296694850115296	n/a	n/a	n/a	n/a	1516.12131147541	5	4	0	1	0	1	0
309.562424495935	2.51845844304563	reward_rtpj	312.080882938981	61	1	11	10	750	250	250	250	0	0	0	0	2000	0	BLOCKED	0.75	-1	4	1	upset	At this moment	4	3	11	228	RTPJ	423.648189783096	0.374531835205993	n/a	n/a	n/a	n/a	1647.78642714571	0.230591852421214	613.863659955825	1.38290673761687	-0.000336970562653376	28.0471425755265	1494.77722277722	2	1	1	0	0	0	0
313.065248958349	2.51857586443424	reward_rtpj	315.583824822783	62	1	11	10	750	250	250	250	0	0	0	0	2000	0	BLOCKED	0.75	1	7	1	interested	At this moment	2	3	11	228	RTPJ	389.542366504669	0.374531835205993	n/a	n/a	n/a	n/a	1695.49900199601	0.230591852421214	1000.55909123132	1.09162408748178	-0.000384817874689632	28.9305377025614	1612.61238761239	2	2	1	0	0	0	0
316.567968693376	2.51879448699952	reward_rtpj	319.086763180375	63	1	11	10	750	250	250	250	0	0	0	0	2000	0	BLOCKED	0.75	-1	3	1	nervous	At this moment	4	3	11	228	RTPJ	289.901260137558	0.374531835205993	n/a	n/a	n/a	n/a	1656.20558882236	0.250576479631053	n/a	n/a	n/a	n/a	1577.60512820513	2	3	1	0	0	0	0
320.074312273383	2.51522282934189	reward_rtpj	322.589535102725	64	1	11	10	750	250	250	250	0	0	0	0	2000	0	BLOCKED	0.75	1	8	1	excited	At this moment	5	3	11	228	RTPJ	386.061684012413	0.385767790262172	n/a	n/a	n/a	n/a	1552.47154471545	0.230591852421214	1099.78362587909	0.654929837685541	-0.000108322720989128	28.9057085270193	1580.15884115884	4	4	1	0	0	0	0
323.57542795372	2.51692596936226	reward_rtpj	326.092353923082	65	1	11	10	750	250	250	250	0	0	0	0	2000	0	BLOCKED	0.75	-1	2	1	guilty	At this moment	1	3	11	228	RTPJ	306.356133341789	0.660424469413233	n/a	n/a	n/a	n/a	1709.01102941176	0.230591852421214	675.524968489978	1.55994077266518	-0.000604143250382919	44.4250475133398	1477.75124875125	3	5	1	0	0	0	0
327.076479810238	2.51885760545736	reward_rtpj	329.595337415695	66	1	11	10	750	250	250	250	0	0	0	0	2000	0	BLOCKED	0.75	1	4	-1	determined	At this moment	1	3	11	228	RTPJ	357.603375077248	0	1825.37975909715	-0.081408449249856	5.16265293823607e-05	12.18897417106	1884.58177278402	0.234435049961568	1079.6390325532	0.864469553180827	-0.000240185633674809	34.2460199182314	1605.42570281124	2	6	1	0	0	0	0
330.579352933645	2.518701748848	reward_rtpj	333.098054682493	67	1	11	10	750	250	250	250	0	0	0	0	2000	0	BLOCKED	0.75	-1	4	1	upset	At this moment	4	3	11	228	RTPJ	340.500744462013	0.374531835205993	n/a	n/a	n/a	n/a	1854.13572854291	0.230591852421214	834.754264295947	1.83413860792988	-0.000726656027509248	21.6034127709779	1794.13986013986	2	7	1	0	0	0	0
334.082102288604	2.51882939612864	reward_rtpj	336.600931684732	68	1	11	10	750	250	250	250	0	0	0	0	2000	0	BLOCKED	0.75	-1	10	-1	interested	At this moment	1	3	11	228	RTPJ	441.052307963371	0.374531835205993	n/a	n/a	n/a	n/a	1959.19760479042	0.230591852421214	1082.19967389932	1.37332697778344	-0.000523938952114667	16.0540039893032	1799.73426573427	2	8	1	0	0	0	0
337.618456750512	6.00481921684741	panas_none	343.62327596736	69	5	12	10	n/a	n/a	n/a	n/a	n/a	n/a	n/a	n/a	2000	0	BLOCKED	n/a	n/a	+	0	strong	At this moment	4	3	11	228	NONE	n/a	0	-1357.50677097704	2.13659027485028	-0.000503134194040551	21.9117350044681	883.162297128589	0	1306.24467413562	-0.399222614216543	0.000219619875581313	149.438397444924	1161.28439661799	3	1	0	1	0	1	0
344.624026336312	6.0216887675524	panas_none	350.645715103865	70	5	12	10	n/a	n/a	n/a	n/a	n/a	n/a	n/a	n/a	2000	0	BLOCKED	n/a	n/a	+	0	afraid	At this moment	1	3	11	228	NONE	n/a	0.373283395755306	n/a	n/a	n/a	n/a	921.996015936255	0	924.81970727051	0.116675258777248	-6.29403906303556e-05	20.4173496031314	969.348193697156	5	2	0	1	0	1	0
351.629773641109	6.02154102098945	panas_none	357.651314662099	71	5	12	10	n/a	n/a	n/a	n/a	n/a	n/a	n/a	n/a	2000	0	BLOCKED	n/a	n/a	+	0	nervous	At this moment	1	3	11	228	NONE	n/a	0	3991.55349454194	-3.12649425846824	0.000769980183311014	8.01612162636669	862.759051186017	0.688700999231361	n/a	n/a	n/a	n/a	1167.05925925926	8	3	0	1	0	1	0
358.635695843816	8.43999657273292	panas_none	367.075692416549	72	5	12	10	n/a	n/a	n/a	n/a	n/a	n/a	n/a	n/a	2000	0	BLOCKED	n/a	n/a	+	0	proud	At this moment	4	3	11	228	NONE	n/a	0	2231.98461149817	-0.833745149094681	0.000236100017379656	15.5040213258614	1534.58302122347	0.331283627978478	n/a	n/a	n/a	n/a	1302.98965517241	4	4	0	1	0	1	0
368.076420217991	2.51922009587292	punish_rtpj	370.595640313864	73	3	13	10	750	250	250	250	0	0	0	0	2000	0	BLOCKED	0.25	1	7	1	interested	At this moment	1	3	11	228	RTPJ	390.540272712708	0.374531835205993	n/a	n/a	n/a	n/a	1734.22155688623	0.230591852421214	552.456205508999	1.959115325171	-0.000738623399643845	28.2268865177869	1624.11088911089	2	1	0	0	1	0	0
371.579330718875	2.51871444296836	punish_rtpj	374.098045161843	74	3	13	10	750	250	250	250	0	0	0	0	2000	0	BLOCKED	0.25	-1	0	1	alert	At this moment	1	3	11	228	RTPJ	606.537942647934	0.473158551810237	n/a	n/a	n/a	n/a	1810.53317535545	0.230591852421214	966.598681224529	1.15461504729222	-0.000353281913046553	19.0896355359833	1588.79120879121	2	2	0	0	1	0	0
375.082204547644	2.51872748970987	punish_rtpj	377.600932037354	75	3	13	10	750	250	250	250	0	0	0	0	2000	0	BLOCKED	0.25	1	2	-1	excited	At this moment	5	3	11	228	RTPJ	306.87165927887	0.374531835205993	n/a	n/a	n/a	n/a	1929.32734530938	0.230591852421214	993.179216516015	1.20097859445797	-0.000412776936281756	16.8831004925057	1676.32467532468	2	3	0	0	1	0	0
378.601689811349	2.51874547326565	punish_rtpj	381.120435284615	76	3	13	10	750	250	250	250	0	0	0	0	2000	0	BLOCKED	0.25	-1	8	-1	strong	At this moment	2	3	11	228	RTPJ	240.010888814926	0.374531835205993	n/a	n/a	n/a	n/a	1776.32734530938	0.421214450422752	n/a	n/a	n/a	n/a	1726.08632138114	2	4	0	0	1	0	0
382.104725843906	2.51862769913674	punish_rtpj	384.623353543043	77	3	13	10	750	250	250	250	0	0	0	0	2000	0	BLOCKED	0.25	1	3	-1	enthusiastic	At this moment	2	3	11	228	RTPJ	306.223549246788	0.374531835205993	n/a	n/a	n/a	n/a	1978.17964071856	0.230591852421214	908.975435467716	1.281069283289	-0.000404847697395281	23.0263703443761	1690.98801198801	4	5	0	0	1	0	0
385.607392686248	2.51874758911134	punish_rtpj	388.126140275359	78	3	13	10	750	250	250	250	0	0	0	0	2000	0	BLOCKED	0.25	1	3	-1	nervous	At this moment	2	3	11	228	RTPJ	390.545209407806	0	-1309.79212791946	3.2091551558423	-0.000763378952848951	14.3757109522889	2022.0836454432	0.230591852421214	940.917973872981	1.4206991640817	-0.000527828824083623	17.5025353356135	1721.99100899101	1	6	0	0	1	0	0
389.110194933891	2.51871162188053	punish_rtpj	391.628906555772	79	3	13	10	750	250	250	250	0	0	0	0	2000	0	BLOCKED	0.25	-1	7	-1	proud	At this moment	2	3	11	228	RTPJ	274.034904718399	0.374531835205993	n/a	n/a	n/a	n/a	1931.69261477046	0.349730976172175	n/a	n/a	n/a	n/a	1664.62293144208	4	7	0	0	1	0	0
392.629821949601	2.5187461785078	punish_rtpj	395.148568128109	80	3	13	10	750	250	250	250	0	0	0	0	2000	0	BLOCKED	0.25	1	2	-1	afraid	At this moment	5	3	11	228	RTPJ	390.050840377808	0.551810237203496	n/a	n/a	n/a	n/a	1864.96378830084	0.238278247501922	940.983418843304	1.2316144118021	-0.000368363366554852	16.8783539493809	1691.5862764884	2	8	0	0	1	0	0
396.14932449162	6.02158968222142	panas_none	402.170914173841	81	5	14	10	n/a	n/a	n/a	n/a	n/a	n/a	n/a	n/a	2000	0	BLOCKED	n/a	n/a	+	0	active	At this moment	5	3	11	228	NONE	n/a	0.147315855181024	4140.12922685882	-3.47693163980044	0.000909710412106581	8.61836661411551	868.667642752562	0	1199.04849914837	0.23624064253598	-0.000217616026401908	164.855371396251	1220.67179093005	5	1	0	1	0	0	0
403.154945207	6.02194758832451	panas_none	409.176892795324	82	5	14	10	n/a	n/a	n/a	n/a	n/a	n/a	n/a	n/a	2000	0	BLOCKED	n/a	n/a	+	0	strong	At this moment	5	3	11	228	NONE	n/a	0.375780274656679	n/a	n/a	n/a	n/a	981.034	0	1135.56561252319	-0.0338745805230976	-5.51351943470627e-05	17.3891508352969	1057.49654112221	3	2	0	1	0	0	0
410.177472145081	6.0218075994253	panas_none	416.199279744506	83	5	14	10	n/a	n/a	n/a	n/a	n/a	n/a	n/a	n/a	2000	0	BLOCKED	n/a	n/a	+	0	enthusiastic	At this moment	5	3	11	228	NONE	n/a	0.590511860174782	n/a	n/a	n/a	n/a	991.600609756098	0	1213.95416382237	-0.0355353995661785	-5.50040098860619e-05	47.7585179491065	1136.05611068409	4	3	0	1	0	0	0
417.183197234988	5.72116879856588	panas_none	422.904366033554	84	5	14	10	n/a	n/a	n/a	n/a	n/a	n/a	n/a	n/a	2000	0	BLOCKED	n/a	n/a	+	0	determined	At this moment	4	3	11	228	NONE	n/a	0	2385.79497668973	-0.633018934289407	0.000165612015671395	14.7803161064834	1795.62297128589	0.362029208301307	n/a	n/a	n/a	n/a	1398.25180722892	6	4	0	1	0	0	0
423.905142496109	2.51873983144759	punish_rtpj	426.423882327557	85	3	15	10	750	250	250	250	0	0	0	0	2000	0	BLOCKED	0.25	-1	8	-1	active	At this moment	4	3	11	228	RTPJ	557.109499573708	0.214731585518102	-2262.08842156097	4.49140890507615	-0.0011699621996491	16.8915310485045	1996.94753577107	0.299000768639508	n/a	n/a	n/a	n/a	1711.45394736842	3	1	0	0	1	0	0
427.425077346563	2.51838051474095	punish_rtpj	429.943457861304	86	3	15	10	750	250	250	250	0	0	0	0	2000	0	BLOCKED	0.25	-1	0	1	attentive	At this moment	4	3	11	228	RTPJ	339.472160577774	0.584269662921348	n/a	n/a	n/a	n/a	1775.83783783784	0.368178324365872	n/a	n/a	n/a	n/a	1605.46715328467	2	2	0	0	1	0	0
430.927696585774	2.51864638793467	punish_rtpj	433.446342973709	87	3	15	10	750	250	250	250	0	0	0	0	2000	0	BLOCKED	0.25	1	4	-1	irritable	At this moment	5	3	11	228	RTPJ	389.877352714539	0.374531835205993	n/a	n/a	n/a	n/a	1870.59880239521	0.234435049961568	940.526510196025	1.42525160021616	-0.000586226792525186	62.3815988309957	1624.32128514056	3	3	0	0	1	0	0
434.447039744973	2.518782498002	punish_rtpj	436.965822242975	88	3	15	10	750	250	250	250	0	0	0	0	2000	0	BLOCKED	0.25	-1	8	-1	scared	At this moment	5	3	11	228	RTPJ	256.527822494507	0.398252184769039	n/a	n/a	n/a	n/a	1776.22821576763	0.403535741737125	n/a	n/a	n/a	n/a	1766.58634020619	2	4	0	0	1	0	0
437.966554628611	2.51879307651524	punish_rtpj	440.485347705126	89	3	15	10	750	250	250	250	0	0	0	0	2000	0	BLOCKED	0.25	1	0	-1	enthusiastic	At this moment	3	3	11	228	RTPJ	323.766598582268	0	589.839972641343	1.32101718059811	-0.000311034499816167	27.1600034909297	1976.21598002497	0.415065334358186	n/a	n/a	n/a	n/a	1734.64914586071	2	5	0	0	1	0	0
441.486157666445	2.5187091537714	punish_rtpj	444.004866820216	90	3	15	10	750	250	250	250	0	0	0	0	2000	0	BLOCKED	0.25	1	4	-1	distressed	At this moment	2	3	11	228	RTPJ	389.80330312252	0.374531835205993	n/a	n/a	n/a	n/a	2116.1756487026	0.235203689469639	1082.9830718084	1.37343646117027	-0.00049299552918146	31.8401470083065	1816.07537688442	3	6	0	0	1	0	0
444.989033963442	2.51882410681247	punish_rtpj	447.507858070254	91	3	15	10	750	250	250	250	0	0	0	0	2000	0	BLOCKED	0.25	1	9	1	afraid	At this moment	3	3	11	228	RTPJ	524.498419880867	0.374531835205993	n/a	n/a	n/a	n/a	1997.79241516966	0.230591852421214	1080.39097481757	1.49979435877077	-0.000583717413287603	15.8062734580628	1845.53046953047	2	7	0	0	1	0	0
448.491748761892	2.518812117815	punish_rtpj	451.010560879707	92	3	15	10	750	250	250	250	0	0	0	0	2000	0	BLOCKED	0.25	1	4	-1	jittery	At this moment	5	3	11	228	RTPJ	373.26485979557	0.374531835205993	n/a	n/a	n/a	n/a	1932.45109780439	0.24750192159877	970.013506964908	1.26566729722086	-0.000369456966904342	58.8321364010773	1699.79060265577	3	8	0	0	1	0	0
451.994744243503	6.02155653607844	panas_none	458.016300779581	93	5	16	10	n/a	n/a	n/a	n/a	n/a	n/a	n/a	n/a	2000	0	BLOCKED	n/a	n/a	+	0	guilty	At this moment	1	3	11	228	NONE	n/a	0.127340823970037	3553.15302812411	-2.73654114640904	0.000690839719625627	10.2542366860785	874.652360515021	0	1438.77921024819	-0.643102950206023	0.000317100864617566	151.059840182847	1171.83243658724	6	1	0	1	0	0	0
459.00030642426	6.02165350580213	panas_none	465.021959930062	94	5	16	10	n/a	n/a	n/a	n/a	n/a	n/a	n/a	n/a	2000	0	BLOCKED	n/a	n/a	+	0	enthusiastic	At this moment	5	3	11	228	NONE	n/a	0	-697.069277244542	1.59787424639034	-0.000379871967895535	25.4142180388169	962.491885143571	0	1207.57466026127	-0.0317721830928448	-8.60063760100953e-05	21.954327353339	1105.87701767871	3	2	0	1	0	0	0
466.006098863959	6.02155935716627	panas_none	472.027658221126	95	5	16	10	n/a	n/a	n/a	n/a	n/a	n/a	n/a	n/a	2000	0	BLOCKED	n/a	n/a	+	0	irritable	At this moment	1	3	11	228	NONE	n/a	0.461922596754057	n/a	n/a	n/a	n/a	954.259860788863	0.214450422751729	1247.06321555658	-0.451769962589014	0.000233425817920386	16.5750146382353	1041.83268101761	6	3	0	1	0	0	0
473.028547873855	10.8586964876652	panas_none	483.88724436152	96	5	16	10	n/a	n/a	n/a	n/a	n/a	n/a	n/a	n/a	2000	0	BLOCKED	n/a	n/a	+	0	excited	At this moment	5	3	11	228	NONE	n/a	0.360799001248439	n/a	n/a	n/a	n/a	1602.310546875	0.349730976172175	n/a	n/a	n/a	n/a	1192.43262411348	6	4	0	1	0	0	0
