onset	duration	trial_type	offset	trial	block	blockCntr	frequency	amplitude_1	amplitude_2	amplitude_3	amplitude_4	amplitude_5	amplitude_6	amplitude_7	amplitude_8	transition	sham	mode	rewardFraction	guess	outcome	correct	word	when	answer	runNr	scanNr	subjectNr	target	reactionTime	outcomeEyeClosed	outcomeParms_1	outcomeParms_2	outcomeParms_3	outcomeSigma	outcomePupilArea	guessEyeClosed	guessParms_1	guessParms_2	guessParms_3	guessSigma	guessPupilArea	nrBlinks	trialInBlock	isReward	isPanas	isPunish	beforePanasReward	beforePanasVLPFC
20.4457784337997	2.5473949007988	reward_vlpfc	22.9931733345985	1	2	1	10	0	0	0	0	250	250	250	750	2000	0	BLOCKED	0.75	-1	8	-1	interested	At this moment	1	1	5	228	VLPFC	636.244163393974	0.374531835205993	n/a	n/a	n/a	n/a	1673.0878243513	0	991.236593633239	0.288747184418283	0.000119218696643943	23.2736290101043	1340.9907763259	1	1	1	0	0	0	0
23.9939483866692	2.5188530216217	reward_vlpfc	26.5128014082909	2	2	1	10	0	0	0	0	250	250	250	750	2000	0	BLOCKED	0.75	-1	4	1	attentive	At this moment	5	1	5	228	VLPFC	407.366098999977	0.374531835205993	n/a	n/a	n/a	n/a	1477.7245508982	0	921.595653828261	0.699337310796143	-2.40093979265337e-05	38.2760269792903	1495.31821675634	1	2	1	0	0	0	0
27.4968500721455	2.51875993061066	reward_vlpfc	30.0156100027561	3	2	1	10	0	0	0	0	250	250	250	750	2000	0	BLOCKED	0.75	1	10	1	scared	At this moment	4	1	5	228	VLPFC	409.032919645309	0.374531835205993	n/a	n/a	n/a	n/a	1539.30339321357	0	1211.72899968712	0.498348153008096	-1.34779346201866e-05	22.2825612410553	1622.77401998463	1	3	1	0	0	0	0
31.0162704544067	2.51881705451012	reward_vlpfc	33.5350875089169	4	2	1	10	0	0	0	0	250	250	250	750	2000	0	BLOCKED	0.75	-1	4	1	enthusiastic	At this moment	3	1	5	228	VLPFC	356.73593711853	0.374531835205993	n/a	n/a	n/a	n/a	1538.54890219561	0	798.53786549988	1.20564008796361	-0.000367929043042932	27.5210429508211	1505.31283627978	1	4	1	0	0	0	0
34.5203692746162	2.51761039912701	reward_vlpfc	37.0379796737433	5	2	1	10	0	0	0	0	250	250	250	750	2000	0	BLOCKED	0.75	1	9	1	nervous	At this moment	4	1	5	228	VLPFC	356.41293990612	0.374531835205993	n/a	n/a	n/a	n/a	1380.31337325349	0	589.404240058169	1.59532837546144	-0.000591483739188114	26.1030337165005	1450.52728670254	1	5	1	0	0	0	0
38.0388767315149	2.51857692217827	reward_vlpfc	40.5574536536932	6	2	1	10	0	0	0	0	250	250	250	750	2000	0	BLOCKED	0.75	-1	2	1	jittery	At this moment	1	1	5	228	VLPFC	323.512361645699	0	14165.5890480374	-11.4975627004972	0.00252787221195362	21.6967648545041	1271.51560549313	0	673.089034447603	1.36241210287321	-0.000508848049636738	40.0394828391229	1392.44350499616	0	6	1	0	0	0	0
41.5582727831602	2.51868658614158	reward_vlpfc	44.0769593693018	7	2	1	10	0	0	0	0	250	250	250	750	2000	0	BLOCKED	0.75	1	7	1	interested	At this moment	5	1	5	228	VLPFC	373.352308750153	0.374531835205993	n/a	n/a	n/a	n/a	1283.66067864271	0.230591852421214	448.144771054723	1.66426358849759	-0.00066260785282126	43.4535732119525	1280.51448551449	2	7	1	0	0	0	0
45.0832500568628	2.51330353486538	reward_vlpfc	47.5965535917282	8	2	1	10	0	0	0	0	250	250	250	750	2000	0	BLOCKED	0.75	-1	6	-1	guilty	At this moment	1	1	5	228	VLPFC	502.69575715065	0	-257.819882916344	1.38950745941426	-0.000292316208925482	36.5520458757603	1356.40823970037	0.230591852421214	691.726560321132	0.841966158002029	-0.000139749990029942	35.9572477415268	1238.26773226773	2	8	1	0	0	0	0
48.6342913702726	6.01800991415978	panas_none	54.6523012844324	9	5	2	10	n/a	n/a	n/a	n/a	n/a	n/a	n/a	n/a	2000	0	BLOCKED	n/a	n/a	+	0	ashamed	At this moment	2	1	5	228	NONE	n/a	0	4921.53246737562	-4.11464096091366	0.000988232633058766	17.7400636799948	691.952559300874	0	719.636106526823	1.13063368404873	-0.000664440906484284	66.4765488993393	1114.68178324366	0	1	0	1	0	1	1
55.636304813385	6.0216965252161	panas_none	61.6580013386011	10	5	2	10	n/a	n/a	n/a	n/a	n/a	n/a	n/a	n/a	2000	0	BLOCKED	n/a	n/a	+	0	attentive	At this moment	5	1	5	228	NONE	n/a	0	45.3345162950741	0.77857428118179	-0.00020015606832756	16.1062805058824	786.334581772784	0	988.0478369586	-0.186463712035423	5.58561775282399e-05	21.2987408970675	877.398923904689	2	2	0	1	0	1	1
62.6587562915087	6.02155406785011	panas_none	68.6803103593588	11	5	2	10	n/a	n/a	n/a	n/a	n/a	n/a	n/a	n/a	2000	0	BLOCKED	n/a	n/a	+	0	active	At this moment	5	1	5	228	NONE	n/a	0	1202.25972181168	-0.32704516119756	6.00660298943428e-05	15.1288614100469	783.193508114856	0	868.618164048365	-0.0766247874798247	5.98611125182865e-05	15.5317113097452	854.840891621829	1	3	0	1	0	1	1
69.681081532836	6.2050940464735	panas_none	75.8861755793095	12	5	2	10	n/a	n/a	n/a	n/a	n/a	n/a	n/a	n/a	2000	0	BLOCKED	n/a	n/a	+	0	jittery	At this moment	4	1	5	228	NONE	n/a	0	22.2238552190647	1.08907669330698	-0.00020207723595752	19.4320189691132	1407.3670411985	0.225211375864719	621.895461921629	0.356356866678578	5.07400369784896e-05	28.9922294325087	902.207341269841	1	4	0	1	0	1	1
76.8872824441194	2.51847113728523	punish_rtpj	79.4057535814047	13	3	3	10	750	250	250	250	0	0	0	0	2000	0	BLOCKED	0.25	-1	6	-1	irritable	At this moment	3	1	5	228	RTPJ	1057.45823776722	1	n/a	n/a	n/a	n/a	n/a	1	n/a	n/a	n/a	n/a	n/a	1	1	0	0	1	0	0
80.4064514104128	2.51921515917779	punish_rtpj	82.9256665695906	14	3	3	10	750	250	250	250	0	0	0	0	2000	0	BLOCKED	0.25	1	2	-1	afraid	At this moment	1	1	5	228	RTPJ	424.469434857368	0.50936329588015	n/a	n/a	n/a	n/a	1548.53944020356	0	930.228450493331	0.829495470835159	-0.000149624057264573	50.9741265724167	1505.49269792467	1	2	0	0	1	0	0
83.9093587377071	2.51881282305717	punish_rtpj	86.4281715607643	15	3	3	10	750	250	250	250	0	0	0	0	2000	0	BLOCKED	0.25	1	8	1	attentive	At this moment	1	1	5	228	RTPJ	373.064926028252	0.374531835205993	n/a	n/a	n/a	n/a	1486.60878243513	0.230591852421214	833.52361801647	1.02924491152928	-0.000301845376197241	29.5859238091391	1462.88611388611	2	3	0	0	1	0	0
87.4290421723127	2.51856810688973	punish_rtpj	89.9476102792025	16	3	3	10	750	250	250	250	0	0	0	0	2000	0	BLOCKED	0.25	1	0	-1	determined	At this moment	4	1	5	228	RTPJ	606.451904058456	0.374531835205993	n/a	n/a	n/a	n/a	1683.94610778443	0	962.038607153621	1.01671634982045	-0.000308908531152291	28.5305481882641	1559.79631053036	1	4	0	0	1	0	0
90.9483303232193	2.51883327496053	punish_rtpj	93.4671635981798	17	3	3	10	750	250	250	250	0	0	0	0	2000	0	BLOCKED	0.25	1	3	-1	nervous	At this moment	3	1	5	228	RTPJ	323.643535256386	0.374531835205993	n/a	n/a	n/a	n/a	1667.46506986028	0.230591852421214	876.341781671941	0.896466230536091	-0.000227016571801053	24.1792948019336	1458.58741258741	2	5	0	0	1	0	0
94.4682172176838	2.51844398570061	punish_rtpj	96.9866612033844	18	3	3	10	750	250	250	250	0	0	0	0	2000	0	BLOCKED	0.25	1	3	-1	jittery	At this moment	5	1	5	228	RTPJ	623.065102219582	0.52059925093633	n/a	n/a	n/a	n/a	1783.36197916667	0	866.824891469918	0.999949936647405	-0.000190900028416456	41.1770166703844	1551.86933128363	1	6	0	0	1	0	0
97.97145388937	2.5180578700304	punish_rtpj	100.4895117594	19	3	3	10	750	250	250	250	0	0	0	0	2000	0	BLOCKED	0.25	1	0	-1	distressed	At this moment	3	1	5	228	RTPJ	439.615393519402	0.374531835205993	n/a	n/a	n/a	n/a	1703.56087824351	0	907.662886267065	1.27101289546675	-0.000491452346407555	37.248229005051	1564.49577248271	1	7	0	0	1	0	0
101.491536133766	2.51764037144184	punish_rtpj	104.009176505208	20	3	3	10	750	250	250	250	0	0	0	0	2000	0	BLOCKED	0.25	-1	3	1	excited	At this moment	1	1	5	228	RTPJ	322.988372802734	0.374531835205993	n/a	n/a	n/a	n/a	1649.65469061876	0.230591852421214	949.748050649161	1.17514401864915	-0.000409059962469846	22.151362619458	1609.68631368631	2	8	0	0	1	0	0
104.993268541098	6.02147719728947	panas_none	111.014745738387	21	5	4	10	n/a	n/a	n/a	n/a	n/a	n/a	n/a	n/a	2000	0	BLOCKED	n/a	n/a	+	0	alert	At this moment	5	1	5	228	NONE	n/a	0	1063.46452316006	-0.276008267704929	7.77288417359382e-05	15.1349890160462	830.143570536829	0	1097.40785866571	0.293690116264092	-0.000259590914933334	132.513659724016	1126.90392006149	1	1	0	1	0	0	0
112.015581440687	6.02152268493175	panas_none	118.037104125619	22	5	4	10	n/a	n/a	n/a	n/a	n/a	n/a	n/a	n/a	2000	0	BLOCKED	n/a	n/a	+	0	strong	At this moment	5	1	5	228	NONE	n/a	0	609.163855194531	0.232734610686911	-6.17994370939087e-05	14.1538907556393	821.47315855181	0.0476556495003843	760.015629767182	0.297479496318149	-0.000124209405056935	31.4109719992213	911.968523002421	4	2	0	1	0	0	0
119.037966274261	6.02154278409481	panas_none	125.059509058356	23	5	4	10	n/a	n/a	n/a	n/a	n/a	n/a	n/a	n/a	2000	0	BLOCKED	n/a	n/a	+	0	scared	At this moment	2	1	5	228	NONE	n/a	0	2282.8219514374	-1.31437109554761	0.000289507589400539	13.9746699969435	814.779026217228	0	918.594617634612	0.130217702318559	-9.22531465724147e-05	21.7722296657433	949.748654880861	2	3	0	1	0	0	0
126.060216760635	12.9939265246391	panas_none	139.054143285275	24	5	4	10	n/a	n/a	n/a	n/a	n/a	n/a	n/a	n/a	2000	0	BLOCKED	n/a	n/a	+	0	guilty	At this moment	4	1	5	228	NONE	n/a	0	497.079408523806	0.866049619984563	-0.000186885462372326	16.944115617159	1481.81897627965	0.230591852421214	547.962982484047	0.701805781224015	-0.000146411986361414	30.8211594959883	985.652347652348	3	4	0	1	0	0	0
140.038579475284	2.51850886726379	reward_rtpj	142.557088342547	25	1	5	10	750	250	250	250	0	0	0	0	2000	0	BLOCKED	0.75	1	7	1	enthusiastic	At this moment	3	1	5	228	RTPJ	556.155318021774	0.503121098626717	n/a	n/a	n/a	n/a	1481.60050251256	0	376.18401720096	1.18737499377322	-0.000250011350906304	37.4180558891204	1168.78401229823	2	1	1	0	0	0	0
143.541342582226	2.51858961653707	reward_rtpj	146.059932198763	26	1	5	10	750	250	250	250	0	0	0	0	2000	0	BLOCKED	0.75	1	0	-1	ashamed	At this moment	2	1	5	228	RTPJ	556.516045212746	0.388264669163546	n/a	n/a	n/a	n/a	1557.05510204082	0	846.279255742416	0.90908475160581	-0.000190968706809966	24.7786071536064	1454.44657955419	1	2	1	0	0	0	0
147.060808099389	2.51860689485073	reward_rtpj	149.57941499424	27	1	5	10	750	250	250	250	0	0	0	0	2000	0	BLOCKED	0.75	1	7	1	inspired	At this moment	1	1	5	228	RTPJ	323.258124947548	0.508114856429463	n/a	n/a	n/a	n/a	1418.03807106599	0.314373558800922	n/a	n/a	n/a	n/a	1323.41143497758	4	3	1	0	0	0	0
150.580218608499	2.51874265229702	reward_rtpj	153.098961260796	28	1	5	10	750	250	250	250	0	0	0	0	2000	0	BLOCKED	0.75	-1	2	1	hostile	At this moment	3	1	5	228	RTPJ	306.494711756706	0.488139825218477	n/a	n/a	n/a	n/a	1291.77804878049	0.31206764027671	n/a	n/a	n/a	n/a	1298.31620111732	4	4	1	0	0	0	0
154.099764169693	2.51880012893676	reward_rtpj	156.61856429863	29	1	5	10	750	250	250	250	0	0	0	0	2000	0	BLOCKED	0.75	1	8	1	jittery	At this moment	2	1	5	228	RTPJ	322.943590521812	0.515605493133583	n/a	n/a	n/a	n/a	1329.4381443299	0.230591852421214	556.674168326851	1.46117672629461	-0.000653768361342653	51.8249592036925	1228.24275724276	3	5	1	0	0	0	0
157.602652808428	2.51874265217779	reward_rtpj	160.121395460606	30	1	5	10	750	250	250	250	0	0	0	0	2000	0	BLOCKED	0.75	-1	2	1	excited	At this moment	5	1	5	228	RTPJ	307.506722569466	0.518102372034956	n/a	n/a	n/a	n/a	1154.4585492228	0.230591852421214	550.208017365872	1.30899548720827	-0.000547761760901767	31.6755223496375	1165.12287712288	3	6	1	0	0	0	0
161.12208588481	2.51878249800203	reward_rtpj	163.640868382812	31	1	5	10	750	250	250	250	0	0	0	0	2000	0	BLOCKED	0.75	1	7	1	proud	At this moment	5	1	5	228	RTPJ	389.940471172333	0.523096129837703	n/a	n/a	n/a	n/a	1262.87696335079	0.299769408147579	n/a	n/a	n/a	n/a	1112.41163556531	4	7	1	0	0	0	0
164.625507327676	2.51821372687817	reward_rtpj	167.143721054554	32	1	5	10	750	250	250	250	0	0	0	0	2000	0	BLOCKED	0.75	-1	9	-1	determined	At this moment	4	1	5	228	RTPJ	472.56639611721	0.474406991260924	n/a	n/a	n/a	n/a	1167.54156769596	0	634.501619986492	0.841602519593292	-0.000331263766920576	31.4684579751795	1065.19139123751	2	8	1	0	0	0	0
168.127859988451	6.02159990811347	panas_none	174.149459896564	33	5	6	10	n/a	n/a	n/a	n/a	n/a	n/a	n/a	n/a	2000	0	BLOCKED	n/a	n/a	+	0	interested	At this moment	4	1	5	228	NONE	n/a	0	875.430171853616	-0.286057984174073	8.53248889809664e-05	15.4624366074409	655.337078651685	0	810.761179734519	0.0887720603585414	-6.07300950106082e-05	79.5289889392412	838.149884704074	1	1	0	1	0	1	0
175.150256458402	6.02149694383144	panas_none	181.171753402233	34	5	6	10	n/a	n/a	n/a	n/a	n/a	n/a	n/a	n/a	2000	0	BLOCKED	n/a	n/a	+	0	jittery	At this moment	3	1	5	228	NONE	n/a	0	132.012668505088	0.570042487185584	-0.000148577291619056	19.4534558323851	665.684144818976	0	611.941550046965	0.145756118098217	-4.22687669149551e-05	19.2217049615221	698.875480399692	4	2	0	1	0	1	0
182.172512939215	6.0216252964735	panas_none	188.194138235688	35	5	6	10	n/a	n/a	n/a	n/a	n/a	n/a	n/a	n/a	2000	0	BLOCKED	n/a	n/a	+	0	afraid	At this moment	1	1	5	228	NONE	n/a	0	203.391733593758	0.533959320965465	-0.000140247217310676	17.929046712645	698.093632958802	0.229823212913144	643.494119704385	0.338598073935705	-0.000153349194981086	24.3199745303011	791.002994011976	10	3	0	1	0	1	0
189.178370260596	8.99055515313148	panas_none	198.168925413728	36	5	6	10	n/a	n/a	n/a	n/a	n/a	n/a	n/a	n/a	2000	0	BLOCKED	n/a	n/a	+	0	upset	At this moment	3	1	5	228	NONE	n/a	0.16354556803995	-1470.74613232269	2.50044106314855	-0.000532201955299809	19.7205050944602	1423.62089552239	0.328209069946195	n/a	n/a	n/a	n/a	1039.86727688787	5	4	0	1	0	1	0
199.169776983857	2.51863721978663	reward_vlpfc	201.688414203644	37	2	7	10	0	0	0	0	250	250	250	750	2000	0	BLOCKED	0.75	1	0	-1	alert	At this moment	1	1	5	228	VLPFC	507.346070289612	0.503121098626717	n/a	n/a	n/a	n/a	1501.18592964824	0.319754035357417	n/a	n/a	n/a	n/a	1119.84971751412	3	1	1	0	0	0	0
202.689377200723	2.51859631633758	reward_vlpfc	205.20797351706	38	2	7	10	0	0	0	0	250	250	250	750	2000	0	BLOCKED	0.75	-1	9	-1	hostile	At this moment	4	1	5	228	VLPFC	256.184373617172	0.435705368289638	n/a	n/a	n/a	n/a	1581.37168141593	0.230591852421214	892.718137500069	1.26123489112682	-0.000520536637654667	39.0163090150162	1535.95904095904	2	2	1	0	0	0	0
206.192096583128	2.51921057522296	reward_vlpfc	208.711307158351	39	2	7	10	0	0	0	0	250	250	250	750	2000	0	BLOCKED	0.75	-1	4	1	excited	At this moment	1	1	5	228	VLPFC	256.655470013618	0.534332084893883	n/a	n/a	n/a	n/a	1518.34048257373	0.230591852421214	679.212512552669	1.5777398313404	-0.000689906259782144	27.0490430903621	1437.92307692308	3	3	1	0	0	0	0
209.69495560205	2.51872819495202	reward_vlpfc	212.213683797002	40	2	7	10	0	0	0	0	250	250	250	750	2000	0	BLOCKED	0.75	1	7	1	guilty	At this moment	4	1	5	228	VLPFC	323.004593133926	0.559300873907616	n/a	n/a	n/a	n/a	1369.37110481586	0.336664104534973	n/a	n/a	n/a	n/a	1267.12398609502	4	4	1	0	0	0	0
213.197828020215	2.51879519236087	reward_vlpfc	215.716623212576	41	2	7	10	0	0	0	0	250	250	250	750	2000	0	BLOCKED	0.75	-1	2	1	alert	At this moment	2	1	5	228	VLPFC	272.912524938583	0.510611735330836	n/a	n/a	n/a	n/a	1188.07142857143	0.342044581091468	n/a	n/a	n/a	n/a	1141.95443925234	4	5	1	0	0	0	0
216.700616515517	2.51871373784542	reward_vlpfc	219.219330253363	42	2	7	10	0	0	0	0	250	250	250	750	2000	0	BLOCKED	0.75	1	10	1	attentive	At this moment	3	1	5	228	VLPFC	373.278611898422	0.544319600499376	n/a	n/a	n/a	n/a	1189.61917808219	0	755.660521485031	0.865403915575049	-0.000346370434835402	25.523823270793	1191.7617217525	2	6	1	0	0	0	0
220.203846487522	2.51844328045846	reward_vlpfc	222.722289767981	43	2	7	10	0	0	0	0	250	250	250	750	2000	0	BLOCKED	0.75	-1	4	1	jittery	At this moment	3	1	5	228	VLPFC	389.31422328949	0	6998.39355272198	-5.27435116293797	0.00115502681179459	35.4593726686076	1077.79900124844	0.330514988470407	n/a	n/a	n/a	n/a	1053.60390355913	2	7	1	0	0	0	0
223.706404371381	2.51867847597597	reward_vlpfc	226.225082847357	44	2	7	10	0	0	0	0	250	250	250	750	2000	0	BLOCKED	0.75	1	6	1	enthusiastic	At this moment	2	1	5	228	VLPFC	399.454783558846	0.485642946317104	n/a	n/a	n/a	n/a	1120.95388349515	0.312836279784781	n/a	n/a	n/a	n/a	1077.36689038031	4	8	1	0	0	0	0
227.225835332155	6.02165632665159	panas_none	233.247491658807	45	5	8	10	n/a	n/a	n/a	n/a	n/a	n/a	n/a	n/a	2000	0	BLOCKED	n/a	n/a	+	0	alert	At this moment	5	1	5	228	NONE	n/a	1	n/a	n/a	n/a	n/a	n/a	0	751.284133104731	-0.0848827666579034	2.95976007139278e-05	71.3697367236216	707.909300538048	19	1	0	1	0	1	1
234.248283284068	6.02159779226781	panas_none	240.269881076336	46	5	8	10	n/a	n/a	n/a	n/a	n/a	n/a	n/a	n/a	2000	0	BLOCKED	n/a	n/a	+	0	inspired	At this moment	5	1	5	228	NONE	n/a	0.998751560549313	n/a	n/a	n/a	n/a	706	0	652.776778432531	0.207813268915742	-0.000104873124236687	18.7803564640576	738.680245964643	19	2	0	1	0	1	1
241.27074992466	6.02146203482152	panas_none	247.292211959481	47	5	8	10	n/a	n/a	n/a	n/a	n/a	n/a	n/a	n/a	2000	0	BLOCKED	n/a	n/a	+	0	afraid	At this moment	2	1	5	228	NONE	n/a	0.169787765293383	2286.85491882532	-1.48302424462967	0.000356620398558177	17.8886418210854	758.251127819549	0	793.794228405828	-0.0153381732794523	5.38651521851238e-05	38.1622990183088	826.961568024596	2	3	0	1	0	1	1
248.276373461008	14.4450506322384	panas_none	262.721424093246	48	5	8	10	n/a	n/a	n/a	n/a	n/a	n/a	n/a	n/a	2000	0	BLOCKED	n/a	n/a	+	0	proud	At this moment	1	1	5	228	NONE	n/a	0	40.9402635773255	1.23649947247013	-0.000312831754277808	18.5761335650888	1241.40199750312	0.328977709454266	n/a	n/a	n/a	n/a	928.576174112257	6	4	0	1	0	1	1
263.705485451341	2.51872960555551	punish_rtpj	266.224215056896	49	3	9	10	750	250	250	250	0	0	0	0	2000	0	BLOCKED	0.25	-1	7	-1	strong	At this moment	5	1	5	228	RTPJ	473.358726501465	0.529338327091136	n/a	n/a	n/a	n/a	1306.58620689655	0.230591852421214	378.276306356628	1.46754960398195	-0.000483698080316817	30.3390498907894	1189.21878121878	2	1	0	0	1	0	0
267.225098362446	2.51879413449768	punish_rtpj	269.743892496943	50	3	9	10	750	250	250	250	0	0	0	0	2000	0	BLOCKED	0.25	-1	7	-1	attentive	At this moment	2	1	5	228	RTPJ	356.551518440247	0.431960049937578	n/a	n/a	n/a	n/a	1437.00879120879	0	802.400180491175	0.664874561895135	-0.000143242736270301	25.928458822701	1243.20138355111	1	2	0	0	1	0	0
270.744632287502	2.51869504892829	punish_rtpj	273.263327336431	51	3	9	10	750	250	250	250	0	0	0	0	2000	0	BLOCKED	0.25	1	1	-1	interested	At this moment	2	1	5	228	RTPJ	322.912207484245	0.47565543071161	n/a	n/a	n/a	n/a	1659.10714285714	0.230591852421214	922.173211027447	0.619677363717606	-6.58056286073793e-05	30.5138810399182	1372.11688311688	3	3	0	0	1	0	0
274.247386579037	2.51875146770482	punish_rtpj	276.766138046742	52	3	9	10	750	250	250	250	0	0	0	0	2000	0	BLOCKED	0.25	-1	2	1	hostile	At this moment	1	1	5	228	RTPJ	356.800818562508	0.550561797752809	n/a	n/a	n/a	n/a	1428.03611111111	0.230591852421214	728.040445677256	1.32240190502329	-0.000524757216738376	31.5422053349101	1399.63136863137	3	4	0	0	1	0	0
277.755309530735	2.51370587086677	punish_rtpj	280.269015401602	53	3	9	10	750	250	250	250	0	0	0	0	2000	0	BLOCKED	0.25	1	3	-1	determined	At this moment	3	1	5	228	RTPJ	384.588097453117	0.374531835205993	n/a	n/a	n/a	n/a	1601.79441117764	0.230591852421214	634.220086536093	1.45307937380093	-0.000589647174881045	38.4267446247735	1364.06393606394	2	5	0	0	1	0	0
281.269879665852	2.51866507661344	punish_rtpj	283.788544742465	54	3	9	10	750	250	250	250	0	0	0	0	2000	0	BLOCKED	0.25	-1	8	-1	irritable	At this moment	1	1	5	228	RTPJ	340.825504660606	0.374531835205993	n/a	n/a	n/a	n/a	1615.58882235529	0.230591852421214	722.258038767238	1.1465126688727	-0.000390992087794519	40.9692883984431	1378.32967032967	3	6	0	0	1	0	0
284.772604690194	2.51882304906843	punish_rtpj	287.291427739263	55	3	9	10	750	250	250	250	0	0	0	0	2000	0	BLOCKED	0.25	-1	2	1	proud	At this moment	1	1	5	228	RTPJ	341.222551465034	0.374531835205993	n/a	n/a	n/a	n/a	1555.71057884232	0	1064.27263692142	0.816291693116166	-0.00018796408707315	25.2930746005285	1595.45119139124	2	7	0	0	1	0	0
288.275492976308	2.5187461783886	punish_rtpj	290.794239154696	56	3	9	10	750	250	250	250	0	0	0	0	2000	0	BLOCKED	0.25	1	0	-1	hostile	At this moment	3	1	5	228	RTPJ	397.922662496567	0.374531835205993	n/a	n/a	n/a	n/a	1572.48103792415	0.230591852421214	615.936316678169	1.8493526445364	-0.000922276097615245	43.3668775770173	1386.09190809191	2	8	0	0	1	0	0
291.795079088449	6.02163164353368	panas_none	297.816710731983	57	5	10	10	n/a	n/a	n/a	n/a	n/a	n/a	n/a	n/a	2000	0	BLOCKED	n/a	n/a	+	0	ashamed	At this moment	1	1	5	228	NONE	n/a	0.746566791510612	n/a	n/a	n/a	n/a	632.935960591133	0	800.798179075176	0.410817554021063	-0.000253161195309683	116.487159626499	935.773251345119	4	1	0	1	0	0	0
298.817371183753	6.02167959940431	panas_none	304.839050783157	58	5	10	10	n/a	n/a	n/a	n/a	n/a	n/a	n/a	n/a	2000	0	BLOCKED	n/a	n/a	+	0	nervous	At this moment	1	1	5	228	NONE	n/a	0	3962.13134529096	-2.93032061424577	0.000670995298989788	22.7758209335125	801.280898876405	0.229823212913144	833.389529835022	-0.184378253945602	0.000231420967895577	20.2847216058305	868.154690618763	4	2	0	1	0	0	0
305.823172791481	6.02151210641864	panas_none	311.8446848979	59	5	10	10	n/a	n/a	n/a	n/a	n/a	n/a	n/a	n/a	2000	0	BLOCKED	n/a	n/a	+	0	active	At this moment	3	1	5	228	NONE	n/a	0.0811485642946317	334.719671661332	0.337271888185651	-7.35939861108497e-05	17.9560103535027	713.57472826087	0	943.552040302901	-0.291741871379293	0.000146602886123969	30.3349097575775	825.261337432744	5	3	0	1	0	0	0
312.828922564626	13.0271525682211	panas_none	325.856075132847	60	5	10	10	n/a	n/a	n/a	n/a	n/a	n/a	n/a	n/a	2000	0	BLOCKED	n/a	n/a	+	0	afraid	At this moment	5	1	5	228	NONE	n/a	0.873907615480649	n/a	n/a	n/a	n/a	1383.49504950495	0.410453497309762	n/a	n/a	n/a	n/a	1144.76401564537	21	4	0	1	0	0	0
326.856928818583	2.51866754496098	reward_rtpj	329.375596363544	61	1	11	10	750	250	250	250	0	0	0	0	2000	0	BLOCKED	0.75	1	8	1	inspired	At this moment	4	1	5	228	RTPJ	973.372125864029	0.374531835205993	n/a	n/a	n/a	n/a	1190.68662674651	0	373.222905869852	1.14931054318106	-0.000291327560049942	28.0862857362567	1098.84550345888	1	1	1	0	0	0	0
330.359681347012	2.51879025566581	reward_rtpj	332.878471602678	62	1	11	10	750	250	250	250	0	0	0	0	2000	0	BLOCKED	0.75	-1	3	1	attentive	At this moment	4	1	5	228	RTPJ	373.35512983799	0.374531835205993	n/a	n/a	n/a	n/a	1366.99201596806	0.230591852421214	785.542704005564	1.11495374350163	-0.00046932558682323	30.1375621380469	1335.28571428571	2	2	1	0	0	0	0
333.862658492446	2.5187147957086	reward_rtpj	336.381373288155	63	1	11	10	750	250	250	250	0	0	0	0	2000	0	BLOCKED	0.75	1	8	1	enthusiastic	At this moment	5	1	5	228	RTPJ	357.433766245842	0.563046192259675	n/a	n/a	n/a	n/a	1281.74571428571	0.230591852421214	834.198595747252	0.593603608831068	-0.000108890150170086	36.2059289812713	1243.94305694306	3	3	1	0	0	0	0
337.38214692986	2.51873665785786	reward_rtpj	339.900883587718	64	1	11	10	750	250	250	250	0	0	0	0	2000	0	BLOCKED	0.75	-1	9	-1	hostile	At this moment	5	1	5	228	RTPJ	323.194301128387	0	-4298.86281901767	5.67203757877994	-0.00139363480796178	31.7477432924794	1393.02247191011	0.230591852421214	535.97401315472	1.31114320705401	-0.000521750458766116	49.8718769480085	1204.75624375624	1	4	1	0	0	0	0
340.884887469292	2.5188427956104	reward_rtpj	343.403730264902	65	1	11	10	750	250	250	250	0	0	0	0	2000	0	BLOCKED	0.75	-1	2	1	distressed	At this moment	3	1	5	228	RTPJ	291.106505274773	0	12831.3898800268	-10.4596686323179	0.0023094700122805	23.7773585053162	1163.03121098627	0	568.006235086891	1.23245546246176	-0.000408177953239472	24.5880191661554	1263.19830899308	0	5	1	0	0	0	0
344.387720041871	2.51880964946747	reward_rtpj	346.906529691339	66	1	11	10	750	250	250	250	0	0	0	0	2000	0	BLOCKED	0.75	-1	4	1	irritable	At this moment	4	1	5	228	RTPJ	407.022297382355	0	11303.7788384844	-8.95227828278469	0.00193939669517069	19.5717575964705	1132.52184769039	0.358954650269024	n/a	n/a	n/a	n/a	1094.33213429257	3	6	1	0	0	0	0
347.907443322062	2.51862417304517	reward_rtpj	350.426067495108	67	1	11	10	750	250	250	250	0	0	0	0	2000	0	BLOCKED	0.75	1	6	1	proud	At this moment	5	1	5	228	RTPJ	323.732042074203	0.374531835205993	n/a	n/a	n/a	n/a	1195.04191616766	0.337432744043044	n/a	n/a	n/a	n/a	1083.22969837587	3	7	1	0	0	0	0
351.426886624455	2.51867424464228	reward_rtpj	353.945560869098	68	1	11	10	750	250	250	250	0	0	0	0	2000	0	BLOCKED	0.75	1	3	-1	attentive	At this moment	3	1	5	228	RTPJ	490.023759365082	0.374531835205993	n/a	n/a	n/a	n/a	1341.80638722555	0.230591852421214	394.975268642974	1.44533342361043	-0.000593907189563675	34.8659985766265	1104.0959040959	2	8	1	0	0	0	0
354.946347205043	6.02166514217851	panas_none	360.968012347221	69	5	12	10	n/a	n/a	n/a	n/a	n/a	n/a	n/a	n/a	2000	0	BLOCKED	n/a	n/a	+	0	alert	At this moment	5	1	5	228	NONE	n/a	0	35.7791257551799	0.612864466016016	-0.000163588153624895	18.5164147670211	592.204744069913	0	533.682173759456	0.869536328967347	-0.000484293839867805	35.7643940359667	897.887009992314	3	1	0	1	0	1	0
361.968778936625	6.02166972625258	panas_none	367.990448662877	70	5	12	10	n/a	n/a	n/a	n/a	n/a	n/a	n/a	n/a	2000	0	BLOCKED	n/a	n/a	+	0	determined	At this moment	5	1	5	228	NONE	n/a	0.601747815230961	n/a	n/a	n/a	n/a	540.228840125392	0.00845503458877786	496.673976659912	0.119101254505148	-5.59704249362496e-05	24.0100698968549	549.006976744186	6	2	0	1	0	1	0
368.991197621465	6.02153890514376	panas_none	375.012736526608	71	5	12	10	n/a	n/a	n/a	n/a	n/a	n/a	n/a	n/a	2000	0	BLOCKED	n/a	n/a	+	0	proud	At this moment	4	1	5	228	NONE	n/a	0.293383270911361	n/a	n/a	n/a	n/a	603.067137809187	0	700.448090963813	-0.0750318936059378	5.84459327053797e-05	20.9267381822793	686.319754035357	7	3	0	1	0	1	0
375.996780254006	10.291755320549	panas_none	386.288535574555	72	5	12	10	n/a	n/a	n/a	n/a	n/a	n/a	n/a	n/a	2000	0	BLOCKED	n/a	n/a	+	0	jittery	At this moment	1	1	5	228	NONE	n/a	0.318352059925094	n/a	n/a	n/a	n/a	1202.76007326007	0.305918524212144	n/a	n/a	n/a	n/a	1072.04318936877	5	4	0	1	0	1	0
387.289283475161	2.51870280659199	punish_vlpfc	389.807986281753	73	4	13	10	0	0	0	0	250	250	250	750	2000	0	BLOCKED	0.25	1	0	-1	irritable	At this moment	3	1	5	228	VLPFC	390.899942040443	0.416978776529338	n/a	n/a	n/a	n/a	1315.65952890792	0.348193697156034	n/a	n/a	n/a	n/a	1025.3608490566	3	1	0	0	1	0	0
390.808925300956	2.51876592504976	punish_vlpfc	393.327691226006	74	4	13	10	0	0	0	0	250	250	250	750	2000	0	BLOCKED	0.25	1	8	1	scared	At this moment	5	1	5	228	VLPFC	324.324438691139	0.374531835205993	n/a	n/a	n/a	n/a	1143.33333333333	0	696.240372712556	0.873855341826301	-0.000329709220963218	39.1266494039557	1152.73558800922	1	2	0	0	1	0	0
394.32849307704	2.51861324191094	punish_vlpfc	396.847106318951	75	4	13	10	0	0	0	0	250	250	250	750	2000	0	BLOCKED	0.25	-1	7	-1	guilty	At this moment	2	1	5	228	VLPFC	307.540926456451	0.374531835205993	n/a	n/a	n/a	n/a	1300.15169660679	0.230591852421214	512.240515136247	1.40016237885382	-0.000626463261035422	38.8901629829472	1172.94805194805	2	3	0	0	1	0	0
397.831224095821	2.51876733565331	punish_vlpfc	400.349991431475	76	4	13	10	0	0	0	0	250	250	250	750	2000	0	BLOCKED	0.25	-1	9	-1	excited	At this moment	1	1	5	228	VLPFC	273.104348540306	0.620474406991261	n/a	n/a	n/a	n/a	1388.75	0	638.056544490375	1.17377239683698	-0.000481910966819989	29.2686454658365	1219.95926210607	2	4	0	0	1	0	0
401.334051026463	2.51876804077625	punish_vlpfc	403.85281906724	77	4	13	10	0	0	0	0	250	250	250	750	2000	0	BLOCKED	0.25	-1	8	-1	nervous	At this moment	2	1	5	228	VLPFC	540.975860595703	0.440699126092385	n/a	n/a	n/a	n/a	1282.45535714286	0	790.070805756532	0.846651301480729	-0.000220025268944097	19.8687000430794	1319.65026902383	1	5	0	0	1	0	0
404.853652301312	2.51870527493952	punish_vlpfc	407.372357576251	78	4	13	10	0	0	0	0	250	250	250	750	2000	0	BLOCKED	0.25	-1	10	-1	enthusiastic	At this moment	1	1	5	228	VLPFC	256.555326581001	0.374531835205993	n/a	n/a	n/a	n/a	1473.79840319361	0	888.235878115899	0.702519647282454	-0.000155506824537294	19.5118900541514	1351.34358186011	1	6	0	0	1	0	0
408.373158369541	2.51869998550416	punish_vlpfc	410.891858355045	79	4	13	10	0	0	0	0	250	250	250	750	2000	0	BLOCKED	0.25	1	6	1	determined	At this moment	1	1	5	228	VLPFC	306.324045062065	0.374531835205993	n/a	n/a	n/a	n/a	1453.31936127745	0.230591852421214	854.068241960976	0.949536411815956	-0.000343801343060426	32.3357126590846	1387.88911088911	2	7	0	0	1	0	0
411.892630939007	2.53561925542357	punish_vlpfc	414.42825019443	80	4	13	10	0	0	0	0	250	250	250	750	2000	0	BLOCKED	0.25	1	0	-1	upset	At this moment	3	1	5	228	VLPFC	373.848088383675	0.375780274656679	n/a	n/a	n/a	n/a	1454.044	0.33282090699462	n/a	n/a	n/a	n/a	1324.70622119816	3	8	0	0	1	0	0
415.428975175142	6.02156429362299	panas_none	421.450539468765	81	5	14	10	n/a	n/a	n/a	n/a	n/a	n/a	n/a	n/a	2000	0	BLOCKED	n/a	n/a	+	0	distressed	At this moment	2	1	5	228	NONE	n/a	0.499375780274657	n/a	n/a	n/a	n/a	599.431421446384	0	855.221072634361	0.276240339770154	-0.000205301061024843	124.271444938588	917.339738662567	5	1	0	1	0	0	1
422.434597300768	6.02163164353368	panas_none	428.456228944302	82	5	14	10	n/a	n/a	n/a	n/a	n/a	n/a	n/a	n/a	2000	0	BLOCKED	n/a	n/a	+	0	irritable	At this moment	2	1	5	228	NONE	n/a	0	809.293360120094	-0.207397910192528	6.37582166289058e-05	19.84701246887	657.424469413234	0	818.306153843866	-0.0626199153655887	3.07910906033229e-05	23.1684937355662	790.973097617217	7	2	0	1	0	0	1
429.4402726717	6.02147754991057	panas_none	435.46175022161	83	5	14	10	n/a	n/a	n/a	n/a	n/a	n/a	n/a	n/a	2000	0	BLOCKED	n/a	n/a	+	0	guilty	At this moment	2	1	5	228	NONE	n/a	0	2474.2973076762	-1.53118269504189	0.000340648362154135	19.4133565652687	778.38202247191	0.229823212913144	1027.95832683159	-0.16409130602252	0.000106957651016355	33.2619946728124	984.033932135728	4	3	0	1	0	0	1
436.446226962686	8.87372996151453	panas_none	445.3199569242	84	5	14	10	n/a	n/a	n/a	n/a	n/a	n/a	n/a	n/a	2000	0	BLOCKED	n/a	n/a	+	0	hostile	At this moment	5	1	5	228	NONE	n/a	0.031210986267166	1410.24172094193	-0.0659633103878006	1.68859259868611e-05	17.321675776464	1347.17139175258	0.481168332052268	n/a	n/a	n/a	n/a	997.013333333333	5	4	0	1	0	0	1
446.32060150826	2.51879554486277	punish_vlpfc	448.839397053123	85	4	15	10	0	0	0	0	250	250	250	750	2000	0	BLOCKED	0.25	1	3	-1	active	At this moment	4	1	5	228	VLPFC	357.732432723045	0.191011235955056	-3576.21925296417	4.70504276141325	-0.00108830845000809	37.8317688616171	1450.35956790123	0.230591852421214	425.521335124694	1.24275482475598	-0.000368505174500086	32.2035499073952	1194.07292707293	2	1	0	0	1	0	0
449.823522587657	2.51876204621794	punish_vlpfc	452.342284633875	86	4	15	10	0	0	0	0	250	250	250	750	2000	0	BLOCKED	0.25	1	6	1	determined	At this moment	5	1	5	228	VLPFC	306.447108507156	0.313358302122347	n/a	n/a	n/a	n/a	1273.30909090909	0	681.701312514371	1.09128925222113	-0.000313516093814007	41.8069192843768	1338.37586471945	1	2	0	0	1	0	0
453.326395005703	2.51875746238233	punish_vlpfc	455.845152468085	87	4	15	10	0	0	0	0	250	250	250	750	2000	0	BLOCKED	0.25	-1	9	-1	attentive	At this moment	3	1	5	228	VLPFC	357.442934393883	0.374531835205993	n/a	n/a	n/a	n/a	1362.35928143713	0.230591852421214	638.821149172215	0.897608225302646	-0.000294245994628561	39.3692800036318	1164.55444555445	2	3	0	0	1	0	0
456.829174685717	2.51876768815521	punish_vlpfc	459.347942373872	88	4	15	10	0	0	0	0	250	250	250	750	2000	0	BLOCKED	0.25	1	3	-1	irritable	At this moment	2	1	5	228	VLPFC	374.128771543503	0.388264669163546	n/a	n/a	n/a	n/a	1530.42244897959	0.230591852421214	701.223562570671	1.23317899055978	-0.000505061405790886	35.7579043535331	1319.73426573427	2	4	0	0	1	0	0
460.332083423615	2.5186781233549	punish_vlpfc	462.850761546969	89	4	15	10	0	0	0	0	250	250	250	750	2000	0	BLOCKED	0.25	1	1	-1	active	At this moment	3	1	5	228	VLPFC	323.295502185822	0.374531835205993	n/a	n/a	n/a	n/a	1515.17165668663	0.230591852421214	761.221383767513	1.02280154984421	-0.00035136350114371	30.0114674280261	1368.22077922078	2	5	0	0	1	0	0
463.851628632188	2.51868799674509	punish_vlpfc	466.370316628933	90	4	15	10	0	0	0	0	250	250	250	750	2000	0	BLOCKED	0.25	-1	2	1	distressed	At this moment	5	1	5	228	VLPFC	339.594871282578	0	12628.797124664	-9.73172129355403	0.00205259505213985	26.9198146831632	1313.76154806492	0.230591852421214	724.212309509286	1.18220734399833	-0.000430208541157858	21.5406248241876	1378.88911088911	1	6	0	0	1	0	0
467.354370934725	2.51872890031342	punish_vlpfc	469.873099835038	91	4	15	10	0	0	0	0	250	250	250	750	2000	0	BLOCKED	0.25	-1	9	-1	attentive	At this moment	5	1	5	228	VLPFC	356.748631358147	0.374531835205993	n/a	n/a	n/a	n/a	1400.42914171657	0.230591852421214	442.613303083034	1.49293617420694	-0.000600307554093618	47.9566491381064	1212.65234765235	3	7	0	0	1	0	0
470.857459507227	2.51856563866136	punish_vlpfc	473.376025145888	92	4	15	10	0	0	0	0	250	250	250	750	2000	0	BLOCKED	0.25	1	0	-1	guilty	At this moment	2	1	5	228	VLPFC	590.742110729218	0.374531835205993	n/a	n/a	n/a	n/a	1461.72055888224	0	707.13371943702	1.00966234254379	-0.000360986989303537	24.2591905213287	1253.77940046118	1	8	0	0	1	0	0
474.376856969357	6.02154842591284	panas_none	480.398405395269	93	5	16	10	n/a	n/a	n/a	n/a	n/a	n/a	n/a	n/a	2000	0	BLOCKED	n/a	n/a	+	0	nervous	At this moment	1	1	5	228	NONE	n/a	0.373283395755306	n/a	n/a	n/a	n/a	665.924302788845	0	754.345014861086	0.512042237663716	-0.000333832637338945	112.913506294989	905.249039200615	5	1	0	1	0	0	1
481.382871557832	6.0211968668699	panas_none	487.404068424702	94	5	16	10	n/a	n/a	n/a	n/a	n/a	n/a	n/a	n/a	2000	0	BLOCKED	n/a	n/a	+	0	jittery	At this moment	3	1	5	228	NONE	n/a	0	811.071179434387	-0.0770768383820712	1.96533539240893e-05	18.3012752461267	737.011235955056	0.111452728670254	1116.87741093569	-0.333613051583536	8.99664677484259e-05	42.25984316306	895.603806228374	2	2	0	1	0	0	1
488.388242267609	6.02170534062384	panas_none	494.409947608232	95	5	16	10	n/a	n/a	n/a	n/a	n/a	n/a	n/a	n/a	2000	0	BLOCKED	n/a	n/a	+	0	ashamed	At this moment	1	1	5	228	NONE	n/a	0.373283395755306	n/a	n/a	n/a	n/a	764.549800796813	0	611.0153346611	0.196159277565102	-2.6697796943504e-05	31.7925561864154	752.436587240584	4	3	0	1	0	0	1
495.410665183783	14.2615300476551	panas_none	509.672195231438	96	5	16	10	n/a	n/a	n/a	n/a	n/a	n/a	n/a	n/a	2000	0	BLOCKED	n/a	n/a	+	0	determined	At this moment	5	1	5	228	NONE	n/a	0.0786516853932584	96.4681598660086	1.05841736253621	-0.000221097636875175	16.1213979680115	1330.0460704607	0.461183704842429	n/a	n/a	n/a	n/a	1061.20256776034	14	4	0	1	0	0	1
