onset	duration	trial_type	offset	trial	block	blockCntr	frequency	amplitude_1	amplitude_2	amplitude_3	amplitude_4	amplitude_5	amplitude_6	amplitude_7	amplitude_8	transition	sham	mode	rewardFraction	guess	outcome	correct	word	when	answer	runNr	scanNr	subjectNr	target	reactionTime	outcomeEyeClosed	outcomeParms_1	outcomeParms_2	outcomeParms_3	outcomeSigma	outcomePupilArea	guessEyeClosed	guessParms_1	guessParms_2	guessParms_3	guessSigma	guessPupilArea	nrBlinks	trialInBlock	isReward	isPanas	isPunish	beforePanasReward	beforePanasVLPFC
20.4535755012035	2.51763014566898	reward_vlpfc	22.9712056468725	1	2	1	10	0	0	0	0	250	250	250	750	2000	0	BLOCKED	0.75	1	10	1	irritable	At this moment	4	2	7	228	VLPFC	1140.09509384632	0.374531835205993	n/a	n/a	n/a	n/a	1292.64471057884	0	1071.9034691812	-0.364442418714737	0.000371675389964172	28.9926811846015	1082.53112990008	2	1	1	0	0	0	0
23.9720258342028	2.51861853098869	reward_vlpfc	26.4906443651915	2	2	1	10	0	0	0	0	250	250	250	750	2000	0	BLOCKED	0.75	-1	1	1	interested	At this moment	2	2	7	228	VLPFC	324.175986766815	0.530586766541823	n/a	n/a	n/a	n/a	1572.79521276596	0	1058.71289496233	0.515324351187696	-5.58758857670821e-05	19.2454441078018	1447.79323597233	2	2	1	0	0	0	0
27.4915072190762	2.51885795807839	reward_vlpfc	30.0103651771545	3	2	1	10	0	0	0	0	250	250	250	750	2000	0	BLOCKED	0.75	1	8	1	alert	At this moment	3	2	7	228	VLPFC	323.789518713951	0.576779026217228	n/a	n/a	n/a	n/a	1406.17699115044	0	902.610037905468	1.04564956529325	-0.000410565116529823	39.1244995783342	1437.37970791699	2	3	1	0	0	0	0
31.0113041963577	2.51853848695755	reward_vlpfc	33.5298426833153	4	2	1	10	0	0	0	0	250	250	250	750	2000	0	BLOCKED	0.75	-1	3	1	hostile	At this moment	1	2	7	228	VLPFC	307.788463592529	0.586766541822722	n/a	n/a	n/a	n/a	1318.32326283988	0.334358186010761	n/a	n/a	n/a	n/a	1242.95034642032	4	4	1	0	0	0	0
34.5307425620556	2.51865485060215	reward_vlpfc	37.0493974126577	5	2	1	10	0	0	0	0	250	250	250	750	2000	0	BLOCKED	0.75	1	3	-1	inspired	At this moment	3	2	7	228	VLPFC	307.834303855896	0.313358302122347	n/a	n/a	n/a	n/a	1479.76	0	721.614014964568	1.02927217034877	-0.000411143076002279	15.1985400527793	1241.42044581091	2	5	1	0	0	0	0
38.0335278838873	2.51866966056824	reward_vlpfc	40.5521975444555	6	2	1	10	0	0	0	0	250	250	250	750	2000	0	BLOCKED	0.75	1	6	1	proud	At this moment	4	2	7	228	VLPFC	739.999957680702	0.551810237203496	n/a	n/a	n/a	n/a	1713.06406685237	0	945.153707297994	0.782894597140266	-0.000137887267025821	20.091230412574	1490.85242121445	2	6	1	0	0	0	0
41.536318847537	2.51873383700848	reward_vlpfc	44.0550526845455	7	2	1	10	0	0	0	0	250	250	250	750	2000	0	BLOCKED	0.75	-1	9	-1	determined	At this moment	1	2	7	228	VLPFC	357.061050057411	0.374531835205993	n/a	n/a	n/a	n/a	1628.35528942116	0.34435049961568	n/a	n/a	n/a	n/a	1395.39859320047	3	7	1	0	0	0	0
45.0392014915943	2.51871373784542	reward_vlpfc	47.5579152294397	8	2	1	10	0	0	0	0	250	250	250	750	2000	0	BLOCKED	0.75	-1	2	1	ashamed	At this moment	5	2	7	228	VLPFC	424.48565530777	0.529338327091136	n/a	n/a	n/a	n/a	1724.90185676393	0	915.57187540501	0.88412871569725	-0.000166784587340748	17.1531225654003	1522.8954650269	2	8	1	0	0	0	0
48.5751497387886	6.00515455555916	panas_none	54.5803042943478	9	5	2	10	n/a	n/a	n/a	n/a	n/a	n/a	n/a	n/a	2000	0	BLOCKED	n/a	n/a	+	0	strong	At this moment	5	2	7	228	NONE	n/a	0	1045.74847424706	-0.349503427688343	8.25508042728986e-05	17.701594005942	680.05493133583	0	865.5238662817	0.328334539307159	-0.000158338276599522	112.899223840929	1011.41967717141	2	1	0	1	0	1	1
55.5643984459639	6.0214927123785	panas_none	61.5858911583424	10	5	2	10	n/a	n/a	n/a	n/a	n/a	n/a	n/a	n/a	2000	0	BLOCKED	n/a	n/a	+	0	enthusiastic	At this moment	5	2	7	228	NONE	n/a	0	1883.00115026323	-1.20157780555492	0.000323516597336352	12.9365439165498	803.279650436954	0	933.214145050955	0.0877558610821993	-8.11239990127943e-05	19.296474851534	938.714066102998	2	2	0	1	0	1	1
62.5702409573793	6.02139891624451	panas_none	68.5916398736238	11	5	2	10	n/a	n/a	n/a	n/a	n/a	n/a	n/a	n/a	2000	0	BLOCKED	n/a	n/a	+	0	proud	At this moment	5	2	7	228	NONE	n/a	0	2805.95813176458	-2.04259830651453	0.000508140387416144	13.5355264284988	784.519350811486	0.225211375864719	1448.90006686267	-1.21116961098439	0.000544434433905973	31.2873940169905	827.954365079365	5	3	0	1	0	1	1
69.5924977908134	5.48788231623173	panas_none	75.0803801070452	12	5	2	10	n/a	n/a	n/a	n/a	n/a	n/a	n/a	n/a	2000	0	BLOCKED	n/a	n/a	+	0	irritable	At this moment	2	2	7	228	NONE	n/a	0	1570.38639784039	-0.474311077414974	0.000189124062592216	20.0458355544507	1418.27465667915	0.0607225211375865	635.149122983162	0.907269640012106	-0.000303881992059724	18.3245130288582	1163.7651391162	1	4	0	1	0	1	1
76.0644456965923	2.51865908205509	punish_vlpfc	78.5831047786474	13	4	3	10	0	0	0	0	250	250	250	750	2000	0	BLOCKED	0.25	1	3	-1	active	At this moment	5	2	7	228	VLPFC	373.698931336403	0.374531835205993	n/a	n/a	n/a	n/a	1566.81437125748	0.315142198308993	n/a	n/a	n/a	n/a	1335.02581369248	3	1	0	0	1	0	0
79.5672990734577	2.51876945126057	punish_vlpfc	82.0860685247183	14	4	3	10	0	0	0	0	250	250	250	750	2000	0	BLOCKED	0.25	1	8	1	guilty	At this moment	1	2	7	228	VLPFC	356.289171338081	0.34207240948814	n/a	n/a	n/a	n/a	1381.5825426945	0	780.797374482585	0.857106205015043	-0.000233502236271379	22.409250671617	1307.65026902383	2	2	0	0	1	0	0
83.0700466653109	2.51890591406823	punish_vlpfc	85.5889525793791	15	4	3	10	0	0	0	0	250	250	250	750	2000	0	BLOCKED	0.25	-1	7	-1	interested	At this moment	4	2	7	228	VLPFC	374.649234175682	0.374531835205993	n/a	n/a	n/a	n/a	1401.39920159681	0.325134511913912	n/a	n/a	n/a	n/a	1203.32460136674	3	3	0	0	1	0	0
86.572982907176	2.51869363868236	punish_vlpfc	89.0916765458584	16	4	3	10	0	0	0	0	250	250	250	750	2000	0	BLOCKED	0.25	-1	2	1	proud	At this moment	2	2	7	228	VLPFC	306.088849663734	0.534332084893883	n/a	n/a	n/a	n/a	1465.8927613941	0.34358186010761	n/a	n/a	n/a	n/a	1412.75995316159	4	4	0	0	1	0	0
90.0758013750315	2.51877121436596	punish_vlpfc	92.5945725893974	17	4	3	10	0	0	0	0	250	250	250	750	2000	0	BLOCKED	0.25	-1	6	-1	attentive	At this moment	5	2	7	228	VLPFC	323.101915478706	0.374531835205993	n/a	n/a	n/a	n/a	1665.11377245509	0.363566487317448	n/a	n/a	n/a	n/a	1428.89855072464	3	5	0	0	1	0	0
93.5785807023048	2.53558223068715	punish_vlpfc	96.114162932992	18	4	3	10	0	0	0	0	250	250	250	750	2000	0	BLOCKED	0.25	-1	9	-1	scared	At this moment	2	2	7	228	VLPFC	307.096276402473	0.374531835205993	n/a	n/a	n/a	n/a	1703.59880239521	0.230591852421214	796.492978721782	1.25550325665539	-0.000469541556961918	40.2605004368013	1473.94105894106	2	6	0	0	1	0	0
97.1148660514355	2.51875499391556	punish_vlpfc	99.633621045351	19	4	3	10	0	0	0	0	250	250	250	750	2000	0	BLOCKED	0.25	1	0	-1	determined	At this moment	5	2	7	228	VLPFC	323.682323098183	0.374531835205993	n/a	n/a	n/a	n/a	1799.63273453094	0.230591852421214	1015.91355784553	1.2296348371483	-0.000491784174008079	25.0541176746916	1628.80919080919	2	7	0	0	1	0	0
100.617740232587	2.51871585345269	punish_vlpfc	103.13645608604	20	4	3	10	0	0	0	0	250	250	250	750	2000	0	BLOCKED	0.25	-1	6	-1	alert	At this moment	2	2	7	228	VLPFC	256.257717967033	0.374531835205993	n/a	n/a	n/a	n/a	1830.9880239521	0.373558800922367	n/a	n/a	n/a	n/a	1651.91901840491	5	8	0	0	1	0	0
104.140751666665	6.01810794174671	panas_none	110.158859608412	21	5	4	10	n/a	n/a	n/a	n/a	n/a	n/a	n/a	n/a	2000	0	BLOCKED	n/a	n/a	+	0	proud	At this moment	5	2	7	228	NONE	n/a	0.222222222222222	1770.48480058658	-1.13431370753595	0.000336165267298661	12.4493352418255	859.402889245586	0	1113.19027231574	0.00953563155296916	-4.77028388159639e-05	120.720193867467	1084.67102229055	4	1	0	1	0	0	1
111.15964664948	6.02154877853394	panas_none	117.181195428014	22	5	4	10	n/a	n/a	n/a	n/a	n/a	n/a	n/a	n/a	2000	0	BLOCKED	n/a	n/a	+	0	interested	At this moment	5	2	7	228	NONE	n/a	0	3170.00803921751	-2.33472162946732	0.000565017805138153	16.7089617590093	788.78152309613	0	922.681812564026	-0.212480451369956	0.000181301297591951	24.5050159717074	890.471176018447	5	2	0	1	0	0	1
118.165226461172	6.02173178684711	panas_none	124.186958248019	23	5	4	10	n/a	n/a	n/a	n/a	n/a	n/a	n/a	n/a	2000	0	BLOCKED	n/a	n/a	+	0	inspired	At this moment	5	2	7	228	NONE	n/a	0.289637952559301	n/a	n/a	n/a	n/a	703.676625659051	0	893.139252814486	0.0573368572590834	-8.77097246508439e-05	31.9874677801575	864.425826287471	1	3	0	1	0	0	1
125.170994217753	10.3752084848881	panas_none	135.546202702641	24	5	4	10	n/a	n/a	n/a	n/a	n/a	n/a	n/a	n/a	2000	0	BLOCKED	n/a	n/a	+	0	scared	At this moment	4	2	7	228	NONE	n/a	0.320848938826467	n/a	n/a	n/a	n/a	1395.32352941176	0.230591852421214	672.861097157584	0.453823998615048	-3.74901412480639e-05	32.0985753761918	1032.17382617383	4	4	0	1	0	0	1
136.530241493225	2.51870492231845	reward_rtpj	139.048946415544	25	1	5	10	750	250	250	250	0	0	0	0	2000	0	BLOCKED	0.75	-1	4	1	strong	At this moment	5	2	7	228	RTPJ	307.703130364418	0.50936329588015	n/a	n/a	n/a	n/a	1557.24936386768	0.36587240584166	n/a	n/a	n/a	n/a	1341.8496969697	5	1	1	0	0	0	0
140.033016941786	2.51884843742849	reward_rtpj	142.551865379214	26	1	5	10	750	250	250	250	0	0	0	0	2000	0	BLOCKED	0.75	1	8	1	active	At this moment	5	2	7	228	RTPJ	306.559946060181	0.554307116104869	n/a	n/a	n/a	n/a	1415.27731092437	0.357417371252882	n/a	n/a	n/a	n/a	1380.86961722488	4	2	1	0	0	0	0
143.535960235953	2.51872290599346	reward_rtpj	146.054683141947	27	1	5	10	750	250	250	250	0	0	0	0	2000	0	BLOCKED	0.75	-1	1	1	afraid	At this moment	3	2	7	228	RTPJ	306.667494297028	0.586766541822722	n/a	n/a	n/a	n/a	1373.87311178248	0.604919292851653	n/a	n/a	n/a	n/a	1364.9280155642	7	3	1	0	0	0	0
147.055463130712	2.51875710964205	reward_rtpj	149.574220240355	28	1	5	10	750	250	250	250	0	0	0	0	2000	0	BLOCKED	0.75	1	3	-1	scared	At this moment	1	2	7	228	RTPJ	357.401677966118	0	56.1688774043109	1.30189891771518	-0.000288938624070265	25.7017977275455	1500.82771535581	0.351268255188317	n/a	n/a	n/a	n/a	1224.92061611374	2	4	1	0	0	0	0
150.558249510407	2.5186492087841	reward_rtpj	153.076898719192	29	1	5	10	750	250	250	250	0	0	0	0	2000	0	BLOCKED	0.75	1	9	1	upset	At this moment	1	2	7	228	RTPJ	323.31948018074	0.530586766541823	n/a	n/a	n/a	n/a	1459.28723404255	0.396617986164489	n/a	n/a	n/a	n/a	1323.57070063694	5	5	1	0	0	0	0
154.061175879002	2.51870315933229	reward_rtpj	156.579879038334	30	1	5	10	750	250	250	250	0	0	0	0	2000	0	BLOCKED	0.75	1	10	1	guilty	At this moment	2	2	7	228	RTPJ	306.427009224892	0.529338327091136	n/a	n/a	n/a	n/a	1468.71618037135	0.374327440430438	n/a	n/a	n/a	n/a	1339.13882063882	4	6	1	0	0	0	0
157.580745770812	2.5187155008316	reward_rtpj	160.099461271644	31	1	5	10	750	250	250	250	0	0	0	0	2000	0	BLOCKED	0.75	-1	0	1	enthusiastic	At this moment	4	2	7	228	RTPJ	272.970706701279	0.374531835205993	n/a	n/a	n/a	n/a	1479.59281437126	0.355880092236741	n/a	n/a	n/a	n/a	1389.76372315036	3	7	1	0	0	0	0
161.083454574823	2.51874441540241	reward_rtpj	163.602198990226	32	1	5	10	750	250	250	250	0	0	0	0	2000	0	BLOCKED	0.75	1	1	-1	alert	At this moment	4	2	7	228	RTPJ	358.415099382401	0.374531835205993	n/a	n/a	n/a	n/a	1751.49900199601	0.33282090699462	n/a	n/a	n/a	n/a	1545.52419354839	3	8	1	0	0	0	0
164.603182439089	6.0215625306368	panas_none	170.624744969726	33	5	6	10	n/a	n/a	n/a	n/a	n/a	n/a	n/a	n/a	2000	0	BLOCKED	n/a	n/a	+	0	distressed	At this moment	1	2	7	228	NONE	n/a	0	194.50128063999	0.479703601676608	-0.000107428434997397	17.4200129246509	722.332084893883	0	1086.49697066091	-0.285939142382147	0.00016234644458983	130.361346895398	987.705611068409	3	1	0	1	0	1	0
171.625374038458	6.02170675098895	panas_none	177.647080789447	34	5	6	10	n/a	n/a	n/a	n/a	n/a	n/a	n/a	n/a	2000	0	BLOCKED	n/a	n/a	+	0	hostile	At this moment	2	2	7	228	NONE	n/a	0	2156.53330040704	-1.42414082648073	0.000377999919472554	27.1963832768769	852.60049937578	0	674.298989130698	0.250822508588815	-9.02701697566505e-05	37.1519356065871	809.540353574174	4	2	0	1	0	1	0
178.647833274245	6.02155583083629	panas_none	184.669389105082	35	5	6	10	n/a	n/a	n/a	n/a	n/a	n/a	n/a	n/a	2000	0	BLOCKED	n/a	n/a	+	0	jittery	At this moment	3	2	7	228	NONE	n/a	0.128589263420724	3751.88861301991	-2.91767269787058	0.00071078553712054	13.4050668849192	786.408309455587	0.0776325903151422	998.061459602701	0.024501018873936	-4.88387875560946e-05	36.4500380240326	978.6375	4	3	0	1	0	1	0
185.653458573461	13.3442420109511	panas_none	198.997700584412	36	5	6	10	n/a	n/a	n/a	n/a	n/a	n/a	n/a	n/a	2000	0	BLOCKED	n/a	n/a	+	0	proud	At this moment	2	2	7	228	NONE	n/a	0	1599.51775285429	-0.46429885517245	0.000139998892980642	20.4405658320385	1249.4581772784	0.461183704842429	n/a	n/a	n/a	n/a	1038.96433666191	11	4	0	1	0	1	0
199.99850067246	2.51876275146006	punish_vlpfc	202.51726342392	37	4	7	10	0	0	0	0	250	250	250	750	2000	0	BLOCKED	0.25	-1	7	-1	enthusiastic	At this moment	1	2	7	228	VLPFC	389.819876194	0.533083645443196	n/a	n/a	n/a	n/a	1333.89037433155	0.369715603382014	n/a	n/a	n/a	n/a	1152.87682926829	3	1	0	0	1	0	0
203.501368506551	2.51873877358437	punish_vlpfc	206.020107280135	38	4	7	10	0	0	0	0	250	250	250	750	2000	0	BLOCKED	0.25	-1	2	1	hostile	At this moment	5	2	7	228	VLPFC	239.763704419136	0.578027465667915	n/a	n/a	n/a	n/a	1300.5650887574	0.593389700230592	n/a	n/a	n/a	n/a	1304.26843100189	4	2	0	0	1	0	0
207.004103051662	2.51877474033833	punish_vlpfc	209.522877792001	39	4	7	10	0	0	0	0	250	250	250	750	2000	0	BLOCKED	0.25	1	4	-1	distressed	At this moment	5	2	7	228	VLPFC	339.916457891464	0	-756.799262926493	1.79414040706307	-0.000375470926016713	17.1710618624716	1335.07240948814	0.557263643351268	n/a	n/a	n/a	n/a	1211.25868055556	2	3	0	0	1	0	0
210.523793891072	2.53543166315555	punish_vlpfc	213.059225554228	40	4	7	10	0	0	0	0	250	250	250	750	2000	0	BLOCKED	0.25	1	3	-1	active	At this moment	3	2	7	228	VLPFC	355.251772165298	0.374531835205993	n/a	n/a	n/a	n/a	1437.6127744511	0.372790161414297	n/a	n/a	n/a	n/a	1281.17401960784	3	4	0	0	1	0	0
214.059939251065	2.51870880115032	punish_vlpfc	216.578648052216	41	4	7	10	0	0	0	0	250	250	250	750	2000	0	BLOCKED	0.25	-1	8	-1	interested	At this moment	3	2	7	228	VLPFC	274.627654075623	0.374531835205993	n/a	n/a	n/a	n/a	1556.31736526946	0.385857033051499	n/a	n/a	n/a	n/a	1456.62953692115	3	5	0	0	1	0	0
217.562797917366	2.51870351171493	punish_vlpfc	220.081501429081	42	4	7	10	0	0	0	0	250	250	250	750	2000	0	BLOCKED	0.25	1	7	1	alert	At this moment	5	2	7	228	VLPFC	389.603721857071	0	8039.06608787029	-5.76040181721078	0.00120043315113677	58.909065232175	1301.00124843945	0.391237509607994	n/a	n/a	n/a	n/a	1492.12247474747	1	6	0	0	1	0	0
221.065575834155	2.5188724154234	punish_vlpfc	223.584448249578	43	4	7	10	0	0	0	0	250	250	250	750	2000	0	BLOCKED	0.25	1	1	-1	excited	At this moment	3	2	7	228	VLPFC	323.791634440422	0.374531835205993	n/a	n/a	n/a	n/a	1458.41716566866	0.390468870099923	n/a	n/a	n/a	n/a	1393.21815889029	2	7	0	0	1	0	0
224.585173582792	2.51888440430164	punish_vlpfc	227.104057987094	44	4	7	10	0	0	0	0	250	250	250	750	2000	0	BLOCKED	0.25	1	4	-1	guilty	At this moment	3	2	7	228	VLPFC	322.955579400063	0	-258.483630305756	1.65149642459793	-0.000356013987870796	18.4274222812215	1620.71161048689	0.377401998462721	n/a	n/a	n/a	n/a	1428.18765432099	1	8	0	0	1	0	0
228.104725138545	6.02152480053903	panas_none	234.126249939084	45	5	8	10	n/a	n/a	n/a	n/a	n/a	n/a	n/a	n/a	2000	0	BLOCKED	n/a	n/a	+	0	strong	At this moment	5	2	7	228	NONE	n/a	0	2507.32527303513	-1.70343362699582	0.000419676619022131	26.5405345188919	802.40074906367	0	1009.96244017396	-0.0705287587177527	2.97615835401489e-05	109.430086113743	979.523443504996	5	1	0	1	0	0	1
235.127088109732	6.02154066848755	panas_none	241.148628778219	46	5	8	10	n/a	n/a	n/a	n/a	n/a	n/a	n/a	n/a	2000	0	BLOCKED	n/a	n/a	+	0	proud	At this moment	5	2	7	228	NONE	n/a	0	897.215216880124	0.126828651525067	-3.93967124946302e-05	18.3768846708454	987.936329588015	0.337432744043044	n/a	n/a	n/a	n/a	1143.37122969838	4	2	0	1	0	0	1
242.149380205035	6.0216739577055	panas_none	248.171054162741	47	5	8	10	n/a	n/a	n/a	n/a	n/a	n/a	n/a	n/a	2000	0	BLOCKED	n/a	n/a	+	0	enthusiastic	At this moment	5	2	7	228	NONE	n/a	0.379525593008739	n/a	n/a	n/a	n/a	833.154929577465	0.229823212913144	1209.64790571382	-0.538684839463235	0.000242769595435193	32.7768346468384	977.642714570858	4	3	0	1	0	0	1
249.171842614293	10.9923683098555	panas_none	260.164210924149	48	5	8	10	n/a	n/a	n/a	n/a	n/a	n/a	n/a	n/a	2000	0	BLOCKED	n/a	n/a	+	0	guilty	At this moment	2	2	7	228	NONE	n/a	0.526841448189763	n/a	n/a	n/a	n/a	1300.95250659631	0.342044581091468	n/a	n/a	n/a	n/a	969.77453271028	10	4	0	1	0	0	1
261.148217274189	2.51885584235191	reward_rtpj	263.667073116541	49	1	9	10	750	250	250	250	0	0	0	0	2000	0	BLOCKED	0.75	-1	8	-1	afraid	At this moment	1	2	7	228	RTPJ	339.84840285778	0.408239700374532	n/a	n/a	n/a	n/a	1430.41983122363	0.230591852421214	386.200993228484	1.35662594362626	-0.000474320351959597	23.672589089765	1149.97002997003	2	1	1	0	0	0	0
264.66773638916	2.51869575428964	reward_rtpj	267.18643214345	50	1	9	10	750	250	250	250	0	0	0	0	2000	0	BLOCKED	0.75	-1	3	1	proud	At this moment	4	2	7	228	RTPJ	290.984852313995	0.617977528089888	n/a	n/a	n/a	n/a	1410.13725490196	0.413528055342045	n/a	n/a	n/a	n/a	1301.18086500655	4	2	1	0	0	0	0
268.187381741047	2.51862029421329	reward_rtpj	270.70600203526	51	1	9	10	750	250	250	250	0	0	0	0	2000	0	BLOCKED	0.75	1	3	-1	ashamed	At this moment	1	2	7	228	RTPJ	373.824110388756	0.455680399500624	n/a	n/a	n/a	n/a	1611.07339449541	0.33358954650269	n/a	n/a	n/a	n/a	1340.7139561707	4	3	1	0	0	0	0
271.70683773756	2.51868306016922	reward_rtpj	274.225520797729	52	1	9	10	750	250	250	250	0	0	0	0	2000	0	BLOCKED	0.75	-1	2	1	inspired	At this moment	1	2	7	228	RTPJ	290.785271167755	0.550561797752809	n/a	n/a	n/a	n/a	1576.575	0.481168332052268	n/a	n/a	n/a	n/a	1546.17037037037	4	4	1	0	0	0	0
275.226278219104	2.51868517577651	reward_rtpj	277.74496339488	53	1	9	10	750	250	250	250	0	0	0	0	2000	0	BLOCKED	0.75	1	9	1	enthusiastic	At this moment	2	2	7	228	RTPJ	307.727813482285	0	4563.43831284915	-2.66690799978894	0.000515882514156457	46.421956904834	1265.75780274657	0.458877786318217	n/a	n/a	n/a	n/a	1494.38068181818	1	5	1	0	0	0	0
278.729669336915	2.51824123084543	reward_rtpj	281.24791056776	54	1	9	10	750	250	250	250	0	0	0	0	2000	0	BLOCKED	0.75	1	7	1	strong	At this moment	5	2	7	228	RTPJ	306.868485808372	0.510611735330836	n/a	n/a	n/a	n/a	1436.21683673469	0.381245196003075	n/a	n/a	n/a	n/a	1298.01739130435	5	6	1	0	0	0	0
282.248754380465	2.51871409022806	reward_rtpj	284.767468470693	55	1	9	10	750	250	250	250	0	0	0	0	2000	0	BLOCKED	0.75	1	8	1	ashamed	At this moment	4	2	7	228	RTPJ	356.901666998863	0.374531835205993	n/a	n/a	n/a	n/a	1518.35928143713	0.371252882398155	n/a	n/a	n/a	n/a	1451.01589242054	3	7	1	0	0	0	0
285.751499503851	2.51877156698703	reward_rtpj	288.270271070838	56	1	9	10	750	250	250	250	0	0	0	0	2000	0	BLOCKED	0.75	-1	4	1	proud	At this moment	3	2	7	228	RTPJ	306.692882537842	0.164794007490637	-2686.36344394225	4.6896431752051	-0.00127741199615725	33.9438970654161	1520.2331838565	0.305918524212144	n/a	n/a	n/a	n/a	1443.13621262458	2	8	1	0	0	0	0
289.271184348822	6.02148213398459	panas_none	295.292666482806	57	5	10	10	n/a	n/a	n/a	n/a	n/a	n/a	n/a	n/a	2000	0	BLOCKED	n/a	n/a	+	0	jittery	At this moment	3	2	7	228	NONE	n/a	0.267166042446941	n/a	n/a	n/a	n/a	740.936967632027	0	1255.54544675136	-0.272414437638002	4.62327911338809e-05	134.131962518064	1068.24673328209	3	1	0	1	0	1	0
296.276793075204	6.02167289972306	panas_none	302.298465974927	58	5	10	10	n/a	n/a	n/a	n/a	n/a	n/a	n/a	n/a	2000	0	BLOCKED	n/a	n/a	+	0	alert	At this moment	5	2	7	228	NONE	n/a	0	781.142830071705	-0.159363684249949	5.54823888053416e-05	15.6590184702252	693.85393258427	0	970.91534685962	-0.38277879129743	0.000179238365978027	30.5684889263316	800.751729438893	5	2	0	1	0	1	0
303.282494539618	6.0215547730923	panas_none	309.304049312711	59	5	10	10	n/a	n/a	n/a	n/a	n/a	n/a	n/a	n/a	2000	0	BLOCKED	n/a	n/a	+	0	interested	At this moment	5	2	7	228	NONE	n/a	0	76.0720411504284	0.622407452921122	-0.000147877227816699	17.4967847256121	722.460674157303	0	1050.91500921322	-0.254451258343551	0.000127985891793025	15.9199736209315	940.251345119139	3	3	0	1	0	1	0
310.288102208018	8.47370640695095	panas_none	318.761808614969	60	5	10	10	n/a	n/a	n/a	n/a	n/a	n/a	n/a	n/a	2000	0	BLOCKED	n/a	n/a	+	0	afraid	At this moment	5	2	7	228	NONE	n/a	0.561797752808989	n/a	n/a	n/a	n/a	1491.06837606838	0.230591852421214	641.735647372279	0.754385704690563	-0.000177545836565905	18.3058369247486	1119.79020979021	7	4	0	1	0	1	0
319.762567094207	2.51866789758208	reward_vlpfc	322.281234991789	61	2	11	10	0	0	0	0	250	250	250	750	2000	0	BLOCKED	0.75	1	7	1	scared	At this moment	5	2	7	228	VLPFC	357.165777206421	0.564294631710362	n/a	n/a	n/a	n/a	1642.99140401146	0.313604919292852	n/a	n/a	n/a	n/a	1430.45240761478	4	1	1	0	0	0	0
323.282098198175	2.51870598018166	reward_vlpfc	325.800804178357	62	2	11	10	0	0	0	0	250	250	250	750	2000	0	BLOCKED	0.75	-1	2	1	active	At this moment	2	2	7	228	VLPFC	322.989783287048	0.519350811485643	n/a	n/a	n/a	n/a	1287.41818181818	0.255188316679477	n/a	n/a	n/a	n/a	1300.7306501548	3	2	1	0	0	0	0
326.784962506175	2.51868940711023	reward_vlpfc	329.303651913285	63	2	11	10	0	0	0	0	250	250	250	750	2000	0	BLOCKED	0.75	1	9	1	ashamed	At this moment	1	2	7	228	VLPFC	458.148238778114	0.499375780274657	n/a	n/a	n/a	n/a	1505.20947630923	0.326671790930054	n/a	n/a	n/a	n/a	1311.68150684932	4	3	1	0	0	0	0
330.287764401078	2.51872748970987	reward_vlpfc	332.806491890788	64	2	11	10	0	0	0	0	250	250	250	750	2000	0	BLOCKED	0.75	-1	9	-1	alert	At this moment	2	2	7	228	VLPFC	289.560984730721	0.499375780274657	n/a	n/a	n/a	n/a	1623.06234413965	0.230591852421214	908.076756007302	1.03243929604472	-0.000437852324034962	29.9746678310632	1421.84915084915	3	4	1	0	0	0	0
333.807228860378	2.51910196912291	reward_vlpfc	336.326330829501	65	2	11	10	0	0	0	0	250	250	250	750	2000	0	BLOCKED	0.75	1	9	1	enthusiastic	At this moment	4	2	7	228	VLPFC	306.378700852394	0.544319600499376	n/a	n/a	n/a	n/a	1663.62191780822	0.358954650269024	n/a	n/a	n/a	n/a	1487.8896882494	5	5	1	0	0	0	0
337.310146413684	2.5188502004147	reward_vlpfc	339.828996614099	66	2	11	10	0	0	0	0	250	250	250	750	2000	0	BLOCKED	0.75	-1	3	1	strong	At this moment	1	2	7	228	VLPFC	373.429179310799	0	4607.89295541265	-2.49242898522879	0.00047117715391857	48.9835774455603	1477.30337078652	0.353574173712529	n/a	n/a	n/a	n/a	1427.54934601665	2	6	1	0	0	0	0
340.81300014317	2.5188431481123	reward_vlpfc	343.331843291283	67	2	11	10	0	0	0	0	250	250	250	750	2000	0	BLOCKED	0.75	-1	8	-1	upset	At this moment	4	2	7	228	VLPFC	339.649174213409	0	-2379.01804928019	3.9410121168217	-0.000967043721360916	25.8090564249604	1580.9163545568	0.372021521906226	n/a	n/a	n/a	n/a	1311.1970624235	3	7	1	0	0	0	0
344.315817905784	2.5187010434866	reward_vlpfc	346.83451894927	68	2	11	10	0	0	0	0	250	250	250	750	2000	0	BLOCKED	0.75	-1	4	1	nervous	At this moment	4	2	7	228	VLPFC	291.114967823029	0	4309.11933370905	-2.09691152362032	0.000335659651174065	81.9935883503708	1404.39700374532	0.374327440430438	n/a	n/a	n/a	n/a	1390.61056511057	2	8	1	0	0	0	0
347.835743588209	6.02116336810587	panas_none	353.856906956315	69	5	12	10	n/a	n/a	n/a	n/a	n/a	n/a	n/a	n/a	2000	0	BLOCKED	n/a	n/a	+	0	proud	At this moment	5	2	7	228	NONE	n/a	0.446941323345818	n/a	n/a	n/a	n/a	634.742663656885	0.101460415065334	619.615765936127	0.690165901220225	-0.000410328433135725	44.4819583917764	865.824636441403	3	1	0	1	0	1	1
354.841140039086	6.02147190797331	panas_none	360.86261194706	70	5	12	10	n/a	n/a	n/a	n/a	n/a	n/a	n/a	n/a	2000	0	BLOCKED	n/a	n/a	+	0	scared	At this moment	1	2	7	228	NONE	n/a	0	2988.75454727371	-2.29549398880807	0.000595390207030168	17.2767176271206	825.70911360799	0.144504227517294	995.289325144313	-0.283065143054968	0.000156613730600701	36.4453682353099	885.539982030548	5	2	0	1	0	1	1
361.863435660362	6.02156358849999	panas_none	367.884999248862	71	5	12	10	n/a	n/a	n/a	n/a	n/a	n/a	n/a	n/a	2000	0	BLOCKED	n/a	n/a	+	0	attentive	At this moment	4	2	7	228	NONE	n/a	0.726591760299625	n/a	n/a	n/a	n/a	792.748858447489	0	942.681748371153	-0.0279882734961895	1.47381593554439e-05	43.0650205956954	929.588009223674	7	3	0	1	0	1	1
368.869065896273	5.20442724776268	panas_none	374.073493144035	72	5	12	10	n/a	n/a	n/a	n/a	n/a	n/a	n/a	n/a	2000	0	BLOCKED	n/a	n/a	+	0	ashamed	At this moment	1	2	7	228	NONE	n/a	0.325842696629214	n/a	n/a	n/a	n/a	1273.04814814815	0.360491929285165	n/a	n/a	n/a	n/a	917.548076923077	7	4	0	1	0	1	1
375.057557675719	2.51870210146905	punish_rtpj	377.576259777188	73	3	13	10	750	250	250	250	0	0	0	0	2000	0	BLOCKED	0.25	1	1	-1	enthusiastic	At this moment	1	2	7	228	RTPJ	1482.45060372353	0.374531835205993	n/a	n/a	n/a	n/a	1430.34930139721	0	520.748561552241	0.965770327088694	-0.000279543120208442	39.3022620157127	1100.10376633359	2	1	0	0	1	0	0
378.576947732925	2.5187839086056	punish_rtpj	381.095731641531	74	3	13	10	750	250	250	250	0	0	0	0	2000	0	BLOCKED	0.25	1	4	-1	guilty	At this moment	3	2	7	228	RTPJ	357.189049959183	0.441947565543071	n/a	n/a	n/a	n/a	1463.0067114094	0	757.898741653583	0.848428676274228	-0.000265365702848651	37.3789766073882	1250.27363566487	1	2	0	0	1	0	0
382.080034895062	2.5186037211418	punish_rtpj	384.598638616204	75	3	13	10	750	250	250	250	0	0	0	0	2000	0	BLOCKED	0.25	1	6	1	active	At this moment	2	2	7	228	RTPJ	357.039187669754	0.565543071161049	n/a	n/a	n/a	n/a	1431.67528735632	0.230591852421214	779.251525333349	1.1638114738199	-0.000478398925203014	23.9407402516867	1386.38961038961	3	3	0	0	1	0	0
385.599394979715	2.51870844841005	punish_rtpj	388.118103428125	76	3	13	10	750	250	250	250	0	0	0	0	2000	0	BLOCKED	0.25	1	2	-1	inspired	At this moment	3	2	7	228	RTPJ	323.149518728256	0.374531835205993	n/a	n/a	n/a	n/a	1349.21956087824	0.431975403535742	n/a	n/a	n/a	n/a	1312.36400541272	2	4	0	0	1	0	0
389.102180301428	2.51884667456153	punish_rtpj	391.621026975989	77	3	13	10	750	250	250	250	0	0	0	0	2000	0	BLOCKED	0.25	1	3	-1	distressed	At this moment	2	2	7	228	RTPJ	240.495737314224	0.374531835205993	n/a	n/a	n/a	n/a	1512.69660678643	0.230591852421214	654.09921559499	1.24288555675763	-0.000484529325632675	28.054386685185	1330.51548451548	2	5	0	0	1	0	0
392.605266405582	2.51862205743788	punish_rtpj	395.12388846302	78	3	13	10	750	250	250	250	0	0	0	0	2000	0	BLOCKED	0.25	-1	10	-1	upset	At this moment	4	2	7	228	RTPJ	274.316645979881	0.508114856429463	n/a	n/a	n/a	n/a	1419.27918781726	0.441967717140661	n/a	n/a	n/a	n/a	1499.62534435262	2	6	0	0	1	0	0
396.107972036004	2.51870421707628	punish_rtpj	398.62667625308	79	3	13	10	750	250	250	250	0	0	0	0	2000	0	BLOCKED	0.25	1	2	-1	alert	At this moment	1	2	7	228	RTPJ	223.484787106514	0.374531835205993	n/a	n/a	n/a	n/a	1510.64071856287	0.385088393543428	n/a	n/a	n/a	n/a	1541.7375	2	7	0	0	1	0	0
399.610853622317	2.51865414547916	punish_rtpj	402.129507767796	80	3	13	10	750	250	250	250	0	0	0	0	2000	0	BLOCKED	0.25	1	6	1	active	At this moment	2	2	7	228	RTPJ	256.226687550545	0.374531835205993	n/a	n/a	n/a	n/a	1479.75648702595	0.360491929285165	n/a	n/a	n/a	n/a	1455.14423076923	3	8	0	0	1	0	0
403.130260605097	6.02172473454476	panas_none	409.151985339642	81	5	14	10	n/a	n/a	n/a	n/a	n/a	n/a	n/a	n/a	2000	0	BLOCKED	n/a	n/a	+	0	inspired	At this moment	5	2	7	228	NONE	n/a	0.16354556803995	1623.42639078845	-1.16602390407982	0.000350768186797088	18.0831506688206	715.680597014925	0.292083013066872	n/a	n/a	n/a	n/a	983.040173724213	6	1	0	1	0	0	0
410.152678937197	6.02163446450231	panas_none	416.174313401699	82	5	14	10	n/a	n/a	n/a	n/a	n/a	n/a	n/a	n/a	2000	0	BLOCKED	n/a	n/a	+	0	distressed	At this moment	1	2	7	228	NONE	n/a	0	548.901307002308	0.159517900103169	-3.02571530986934e-05	18.5355762058154	748.900124843945	0	904.064647762559	-0.0548388731270296	1.66805525215172e-08	23.5408105763882	859.517294388932	4	2	0	1	0	0	0
417.175159329891	6.02163023316859	panas_none	423.19678956306	83	5	14	10	n/a	n/a	n/a	n/a	n/a	n/a	n/a	n/a	2000	0	BLOCKED	n/a	n/a	+	0	guilty	At this moment	2	2	7	228	NONE	n/a	0	2940.40582937229	-2.12140344193615	0.000519053957844502	19.4236840068993	801.184769038702	0	976.218233032621	-0.289953921506509	0.000196109555722038	30.8697124567495	899.814757878555	2	3	0	1	0	0	0
424.180766645789	8.60705558443067	panas_none	432.78782223022	84	5	14	10	n/a	n/a	n/a	n/a	n/a	n/a	n/a	n/a	2000	0	BLOCKED	n/a	n/a	+	0	alert	At this moment	4	2	7	228	NONE	n/a	0.197253433208489	-778.608185431076	1.82060455576275	-0.000401414733107281	22.0089863513467	1268.01555209953	0.358954650269024	n/a	n/a	n/a	n/a	1025.2278177458	7	4	0	1	0	0	0
433.788604334712	2.51869716489313	punish_rtpj	436.307301499605	85	3	15	10	750	250	250	250	0	0	0	0	2000	0	BLOCKED	0.25	1	2	-1	active	At this moment	4	2	7	228	RTPJ	356.437270522118	0.374531835205993	n/a	n/a	n/a	n/a	1386.95209580838	0.355880092236741	n/a	n/a	n/a	n/a	1194.05608591885	3	1	0	0	1	0	0
437.308046931863	2.51878249812131	punish_rtpj	439.826829429984	86	3	15	10	750	250	250	250	0	0	0	0	2000	0	BLOCKED	0.25	1	3	-1	strong	At this moment	2	2	7	228	RTPJ	339.846639752388	0.559300873907616	n/a	n/a	n/a	n/a	1348.86402266289	0.468870099923136	n/a	n/a	n/a	n/a	1192.94645441389	4	2	0	0	1	0	0
440.810982468605	2.5187750930786	punish_rtpj	443.329757561684	87	3	15	10	750	250	250	250	0	0	0	0	2000	0	BLOCKED	0.25	1	7	1	upset	At this moment	5	2	7	228	RTPJ	456.70991396904	0.569288389513109	n/a	n/a	n/a	n/a	1500.78260869565	0.327440430438125	n/a	n/a	n/a	n/a	1271.17028571429	4	3	0	0	1	0	0
444.330498057485	2.51875675702092	punish_rtpj	446.849254814506	88	3	15	10	750	250	250	250	0	0	0	0	2000	0	BLOCKED	0.25	1	9	1	attentive	At this moment	4	2	7	228	RTPJ	289.679816603661	0.566791510611735	n/a	n/a	n/a	n/a	1375.5446685879	0.382013835511145	n/a	n/a	n/a	n/a	1337.45646766169	4	4	0	0	1	0	0
447.849958990574	2.51884173774715	punish_rtpj	450.368800728321	89	3	15	10	750	250	250	250	0	0	0	0	2000	0	BLOCKED	0.25	-1	8	-1	afraid	At this moment	3	2	7	228	RTPJ	322.836747527122	0.374531835205993	n/a	n/a	n/a	n/a	1605.5129740519	0.352805534204458	n/a	n/a	n/a	n/a	1372.45249406176	3	5	0	0	1	0	0
451.352931199551	2.51866683959958	punish_rtpj	453.87159803915	90	3	15	10	750	250	250	250	0	0	0	0	2000	0	BLOCKED	0.25	-1	8	-1	irritable	At this moment	1	2	7	228	RTPJ	289.986593365669	0.385767790262172	n/a	n/a	n/a	n/a	1682.33536585366	0.230591852421214	752.64880706112	1.13675513260052	-0.000378540887698463	25.1011591846448	1435.26773226773	2	6	0	0	1	0	0
454.872399537563	2.51880506563191	punish_rtpj	457.391204603195	91	3	15	10	750	250	250	250	0	0	0	0	2000	0	BLOCKED	0.25	-1	6	-1	distressed	At this moment	5	2	7	228	RTPJ	356.530008792877	0.400749063670412	n/a	n/a	n/a	n/a	1702.44375	0.230591852421214	1041.71408592746	0.723701753718006	-0.000177623656503335	40.9998244759443	1520.34765234765	4	7	0	0	1	0	0
458.391856239438	2.51878849256036	punish_rtpj	460.910644731998	92	3	15	10	750	250	250	250	0	0	0	0	2000	0	BLOCKED	0.25	1	2	-1	ashamed	At this moment	1	2	7	228	RTPJ	273.103290677071	0	-1164.81906280292	2.66439244749357	-0.0006106997692857	22.5984079418826	1704.39700374532	0.295157571099154	n/a	n/a	n/a	n/a	1570.1439476554	1	8	0	0	1	0	0
461.911456103682	6.02155865192418	panas_none	467.933014755607	93	5	16	10	n/a	n/a	n/a	n/a	n/a	n/a	n/a	n/a	2000	0	BLOCKED	n/a	n/a	+	0	scared	At this moment	1	2	7	228	NONE	n/a	0	3004.93847212051	-2.54786472118042	0.000700264778955264	19.1478200505598	778.479400749064	0	1017.40096543561	-0.0482028496785584	-1.39758936785745e-05	120.179483514073	968.513451191391	8	1	0	1	0	0	0
468.93375595665	6.0216365801096	panas_none	474.955392536759	94	5	16	10	n/a	n/a	n/a	n/a	n/a	n/a	n/a	n/a	2000	0	BLOCKED	n/a	n/a	+	0	alert	At this moment	5	2	7	228	NONE	n/a	0	1396.92380243902	-0.647037994571887	0.000174471302086806	20.2008143442427	815.152309612984	0	1227.95678965603	-0.574255305311142	0.000273358123144476	31.2143505066558	975.043043812452	4	2	0	1	0	0	0
475.956227886558	6.02157910346983	panas_none	481.977806990027	95	5	16	10	n/a	n/a	n/a	n/a	n/a	n/a	n/a	n/a	2000	0	BLOCKED	n/a	n/a	+	0	enthusiastic	At this moment	5	2	7	228	NONE	n/a	0.401997503121099	n/a	n/a	n/a	n/a	727.123173277662	0	1117.32768188191	-0.388623366798089	0.000166660699088294	21.8023481647357	930.995388162952	4	3	0	1	0	0	0
482.978557359099	7.48945639848711	panas_none	490.468013757587	96	5	16	10	n/a	n/a	n/a	n/a	n/a	n/a	n/a	n/a	2000	0	BLOCKED	n/a	n/a	+	0	nervous	At this moment	4	2	7	228	NONE	n/a	0	4611.01262070903	-3.13659720126376	0.000725572286686827	19.7438650844349	1262.6279650437	0.578785549577248	n/a	n/a	n/a	n/a	972.403284671533	6	4	0	1	0	0	0
