onset	duration	trial_type	offset	trial	block	blockCntr	frequency	amplitude_1	amplitude_2	amplitude_3	amplitude_4	amplitude_5	amplitude_6	amplitude_7	amplitude_8	transition	sham	mode	rewardFraction	guess	outcome	correct	word	when	answer	runNr	scanNr	subjectNr	target	reactionTime	outcomeEyeClosed	outcomeParms_1	outcomeParms_2	outcomeParms_3	outcomeSigma	outcomePupilArea	guessEyeClosed	guessParms_1	guessParms_2	guessParms_3	guessSigma	guessPupilArea	nrBlinks	trialInBlock	isReward	isPanas	isPunish	beforePanasReward	beforePanasVLPFC
20.4385278549194	2.51902559387684	punish_vlpfc	22.9575534487963	1	4	1	10	0	0	0	0	250	250	250	750	2000	0	BLOCKED	0.25	-1	8	-1	strong	At this moment	4	2	8	211	VLPFC	807.495778203011	0.418227215980025	n/a	n/a	n/a	n/a	3153.81115879828	0	2407.17572320237	-0.249016485174363	0.000436757656605801	22.0393053136206	2572.6764027671	1	1	0	0	1	0	0
23.9582756071091	2.53508973920345	punish_vlpfc	26.4933653463125	2	4	1	10	0	0	0	0	250	250	250	750	2000	0	BLOCKED	0.25	-1	7	-1	guilty	At this moment	2	2	8	211	VLPFC	240.183247685432	0	5274.95134762773	-1.90872278291127	0.000482682830757196	24.6544061651523	3421.41822721598	0	2275.11261339774	0.728185591512082	-1.1228022562217e-05	30.4494635646351	2884.15295926211	0	2	0	0	1	0	0
27.4946263024807	2.53510772252083	punish_vlpfc	30.0297340250015	3	4	1	10	0	0	0	0	250	250	250	750	2000	0	BLOCKED	0.25	-1	6	-1	attentive	At this moment	1	2	8	211	VLPFC	223.155754566193	0	4695.90745105079	-1.31485562757199	0.000356719445446976	23.4274780881289	3526.32958801498	0	2405.86684359706	0.731575987664312	6.80160813280893e-06	31.0186677778223	3034.51575710992	0	3	0	0	1	0	0
31.0305337591171	2.518700481534	punish_vlpfc	33.5492342406511	4	4	1	10	0	0	0	0	250	250	250	750	2000	0	BLOCKED	0.25	-1	1	1	excited	At this moment	2	2	8	211	VLPFC	206.727003931999	0	22707.5631466921	-18.4255802699792	0.00424361477497287	42.3220412666547	2943.40074906367	0	2066.78630864085	1.36668753298321	-0.00032613746042878	23.0039150106705	2950.64258262875	0	4	0	0	1	0	0
34.5500212804079	2.53531717681885	punish_vlpfc	37.0853384572268	5	4	1	10	0	0	0	0	250	250	250	750	2000	0	BLOCKED	0.25	-1	8	-1	irritable	At this moment	2	2	8	211	VLPFC	254.218085646629	0	7671.84692208669	-3.96190755660746	0.000888366797389355	25.3346846704999	3314.44943820225	0	2227.071853711	1.11132545815944	-0.00022348290796903	45.4711097385364	2979.10684089162	0	5	0	0	1	0	0
38.0695754464865	2.53537218475341	punish_vlpfc	40.6049476312399	6	4	1	10	0	0	0	0	250	250	250	750	2000	0	BLOCKED	0.25	-1	6	-1	jittery	At this moment	3	2	8	211	VLPFC	323.469477295876	0	3905.16997917687	-0.740895734570158	0.000175721421563233	16.0535136852852	3133.93882646692	0	1464.29444825677	2.22492938564723	-0.000769203777805344	24.9969240740542	2725.90084550346	0	6	0	0	1	0	0
41.5891081027985	2.51869730794429	punish_vlpfc	44.1078054107428	7	4	1	10	0	0	0	0	250	250	250	750	2000	0	BLOCKED	0.25	-1	8	-1	upset	At this moment	3	2	8	211	VLPFC	289.790027499199	0	8596.31199956627	-5.52194089656303	0.00134995980497512	34.4734453498247	3025.38451935081	0	2116.00873580879	1.01360515280443	-0.000279475296755528	29.9066041176751	2736.35126825519	0	7	0	0	1	0	0
45.0918371772766	2.51884822797776	punish_vlpfc	47.6106854052544	8	4	1	10	0	0	0	0	250	250	250	750	2000	0	BLOCKED	0.25	1	7	1	attentive	At this moment	3	2	8	211	VLPFC	417.797536849976	0	18929.5507271648	-14.9147005697909	0.00339041536068202	45.9177193879357	2738.10112359551	0	1738.10955676454	1.27814368850965	-0.000229692625528038	23.9003225882891	2629.0476556495	0	8	0	0	1	0	0
48.6214469050169	6.02826537775994	panas_none	54.6497122827768	9	5	2	10	n/a	n/a	n/a	n/a	n/a	n/a	n/a	n/a	2000	0	BLOCKED	n/a	n/a	+	0	alert	At this moment	5	2	8	211	NONE	n/a	0.373283395755306	n/a	n/a	n/a	n/a	1666.91035856574	0	2289.68301101105	-0.11962154266845	-0.000169016039165448	40.9560729587156	2048.24058416603	6	1	0	1	0	0	1
55.6505194216967	6.02424378764629	panas_none	61.674763209343	10	5	2	10	n/a	n/a	n/a	n/a	n/a	n/a	n/a	n/a	2000	0	BLOCKED	n/a	n/a	+	0	determined	At this moment	5	2	8	211	NONE	n/a	0	5731.52868134059	-3.58923753203994	0.000868385611405481	24.383781745551	2070.19475655431	0	2264.84524535064	0.419913821479342	-0.000310548857193952	40.5123187859032	2353.05457340507	2	2	0	1	0	0	1
62.6562060662508	6.05489426267147	panas_none	68.7111003289223	11	5	2	10	n/a	n/a	n/a	n/a	n/a	n/a	n/a	n/a	2000	0	BLOCKED	n/a	n/a	+	0	strong	At this moment	5	2	8	211	NONE	n/a	0	5137.67712947851	-2.92293606345581	0.000624024080013653	10.6947290115103	1784.76654182272	0	2240.82618278778	-0.106257792440314	-2.09127454777648e-05	35.5076403930586	2132.58800922367	2	3	0	1	0	0	1
69.7165161641836	5.08285110104084	panas_none	74.7993672652245	12	5	2	10	n/a	n/a	n/a	n/a	n/a	n/a	n/a	n/a	2000	0	BLOCKED	n/a	n/a	+	0	afraid	At this moment	4	2	8	211	NONE	n/a	0	2393.80572464743	0.357910550295146	-5.50992606699829e-05	16.4419692747201	2899.05493133583	0	1555.61874692067	1.23350718411617	-0.000268289758052698	19.0483749717363	2390.94081475788	0	4	0	1	0	0	1
75.7836338742971	2.51855908238888	punish_rtpj	78.302192956686	13	3	3	10	750	250	250	250	0	0	0	0	2000	0	BLOCKED	0.25	-1	6	-1	hostile	At this moment	4	2	8	211	RTPJ	390.860112428665	0	3069.4476672068	-0.0996528603865215	6.26865559974283e-05	18.7811803701203	3140.088639201	0	1535.86499454053	1.45366800624647	-0.000292156678201386	24.4433852755507	2519.62567255957	0	1	0	0	1	0	0
79.2864235988855	2.53534926474094	punish_rtpj	81.8217728636265	14	3	3	10	750	250	250	250	0	0	0	0	2000	0	BLOCKED	0.25	-1	10	-1	nervous	At this moment	1	2	8	211	RTPJ	255.86127781868	0	6511.96195749313	-3.51184459010904	0.00087343745486891	28.492541559386	3035.33832709114	0	1721.00649181746	1.43260160212911	-0.000436598986038831	24.8304061816276	2571.49961568025	0	2	0	0	1	0	0
82.8225264048576	2.51877558898926	punish_rtpj	85.3413019938469	15	3	3	10	750	250	250	250	0	0	0	0	2000	0	BLOCKED	0.25	1	0	-1	irritable	At this moment	2	2	8	211	RTPJ	173.42414855957	0	4693.322974491	-1.65080191010346	0.000434162457747429	25.4922138953092	3164.39575530587	0	2011.69809108023	1.03255916011115	-0.00021802688903834	20.397586176182	2701.14911606457	0	3	0	0	1	0	0
86.3422438322306	2.51870718133449	punish_rtpj	88.8609510135651	16	3	3	10	750	250	250	250	0	0	0	0	2000	0	BLOCKED	0.25	-1	2	1	scared	At this moment	1	2	8	211	RTPJ	243.466106295586	0.374531835205993	n/a	n/a	n/a	n/a	2592.41117764471	0	1746.02496403455	1.80762168344259	-0.000760134303427782	73.4143593374054	2628.02459646426	1	4	0	0	1	0	0
89.8662018243074	2.51411012136937	punish_rtpj	92.3803119456768	17	3	3	10	750	250	250	250	0	0	0	0	2000	0	BLOCKED	0.25	-1	9	-1	determined	At this moment	2	2	8	211	RTPJ	201.700809836388	0	5485.93327372972	-2.37600432038698	0.000542321288831546	27.3047629251746	2916.49063670412	0	1939.867301984	1.04898117537854	-0.000235734768150955	32.7831434835538	2628.53574173713	0	5	0	0	1	0	0
93.3810834703445	2.53558199167252	punish_rtpj	95.9166654620171	18	3	3	10	750	250	250	250	0	0	0	0	2000	0	BLOCKED	0.25	-1	4	1	inspired	At this moment	3	2	8	211	RTPJ	142.720075845718	0.392009987515606	n/a	n/a	n/a	n/a	2453.39219712526	0	1669.02996624874	1.14080962607725	-0.000248789388253281	33.3060606822949	2424.4381245196	1	6	0	0	1	0	0
96.9172874773741	2.51877523624897	punish_rtpj	99.436062713623	19	3	3	10	750	250	250	250	0	0	0	0	2000	0	BLOCKED	0.25	1	1	-1	interested	At this moment	3	2	8	211	RTPJ	356.558294653893	0	8043.9410203728	-4.90222204271217	0.0011714558990042	40.7554396499929	2977.74531835206	0	1879.95306279359	0.975663662570358	-0.000121866276355169	28.8884119328116	2601.6479631053	0	7	0	0	1	0	0
100.436851516485	2.51876853668689	punish_rtpj	102.955620053172	20	3	3	10	750	250	250	250	0	0	0	0	2000	0	BLOCKED	0.25	1	3	-1	jittery	At this moment	1	2	8	211	RTPJ	272.852098941803	0	2058.45203417062	0.552712209316589	-6.92784096519321e-05	19.7563845463251	2909.89887640449	0	1413.05371694631	1.01577291171037	-9.29630924172115e-05	51.7458521934167	2199.02767102229	0	8	0	0	1	0	0
103.956294255614	6.02162243735791	panas_none	109.977916692972	21	5	4	10	n/a	n/a	n/a	n/a	n/a	n/a	n/a	n/a	2000	0	BLOCKED	n/a	n/a	+	0	ashamed	At this moment	5	2	8	211	NONE	n/a	0.310861423220974	n/a	n/a	n/a	n/a	1588.58333333333	0	1806.747412795	0.292891062295359	-0.000281758827967471	57.6587813120437	1825.20292083013	3	1	0	1	0	0	0
110.962103963375	6.02178957760334	panas_none	116.983893540978	22	5	4	10	n/a	n/a	n/a	n/a	n/a	n/a	n/a	n/a	2000	0	BLOCKED	n/a	n/a	+	0	nervous	At this moment	1	2	8	211	NONE	n/a	0.133583021223471	6018.07990022254	-4.25821335901555	0.00103519845090304	11.096421227057	1680.62536023055	0	1894.7059379354	0.592091715158829	-0.000405805406758385	55.3446615004252	2047.84242890085	2	2	0	1	0	0	0
117.984684459567	6.02123632240296	panas_none	124.00592078197	23	5	4	10	n/a	n/a	n/a	n/a	n/a	n/a	n/a	n/a	2000	0	BLOCKED	n/a	n/a	+	0	active	At this moment	5	2	8	211	NONE	n/a	0	3549.24325349549	-1.35605031222721	0.000247547562560956	28.2714135799849	1806.34207240949	0	1945.51078093481	0.158628100107476	-8.04832531114528e-05	23.1552531165959	2010.98616448885	3	3	0	1	0	0	0
125.006711347938	13.4777165831327	panas_none	138.48442793107	24	5	4	10	n/a	n/a	n/a	n/a	n/a	n/a	n/a	n/a	2000	0	BLOCKED	n/a	n/a	+	0	determined	At this moment	5	2	8	211	NONE	n/a	0	2379.87133704118	0.436869421211373	-5.95169416408142e-05	15.2936880819403	3031.55555555556	0.0361260568793236	2023.37993244362	0.358086087097048	0.000135270185468065	22.4868652628752	2441.38516746412	3	4	0	1	0	0	0
139.468507653475	2.53539475226404	reward_vlpfc	142.003902405739	25	2	5	10	0	0	0	0	250	250	250	750	2000	0	BLOCKED	0.75	1	8	1	alert	At this moment	5	2	8	211	VLPFC	373.831208825111	0	18377.7226054358	-14.319825596988	0.00326696020166194	54.6579928629858	2882.42571785268	0	1925.51543838952	1.12277989030132	-0.000173828610107367	27.445300912822	2730.92851652575	0	1	1	0	0	0	0
142.988045598984	2.51876959455012	reward_vlpfc	145.506815193534	26	2	5	10	0	0	0	0	250	250	250	750	2000	0	BLOCKED	0.75	1	9	1	upset	At this moment	5	2	8	211	VLPFC	256.985771656036	0	12053.9983752468	-8.55612328878316	0.00193732477361099	43.7957537156418	2734.03370786517	0	1739.51226731859	1.20602496637508	-0.000244809513428607	24.3422887676095	2554.62797847809	0	2	1	0	0	0	0
146.507674166918	2.51861832213402	reward_vlpfc	149.026292489052	27	2	5	10	0	0	0	0	250	250	250	750	2000	0	BLOCKED	0.75	1	4	-1	jittery	At this moment	2	2	8	211	VLPFC	257.453693628311	0	4861.08714930965	-1.828625717265	0.000450229289999407	24.3317401038186	3030.03495630462	0	1675.43637612912	1.42946679357816	-0.000364653797227171	26.6997166375208	2583.92544196772	0	3	1	0	0	0	0
150.027042856693	2.53551252615452	reward_vlpfc	152.562555382848	28	2	5	10	0	0	0	0	250	250	250	750	2000	0	BLOCKED	0.75	-1	8	-1	guilty	At this moment	3	2	8	211	VLPFC	40.5293760299683	0	3175.84076651987	-0.269492287463943	9.6339098099497e-05	31.2804402767292	3038.96878901373	0	1978.16321745971	1.07419531423604	-0.000307717944014745	22.2223455528172	2626.71022290546	0	4	1	0	0	0	0
153.546623468876	2.51869025576116	reward_vlpfc	156.065313724637	29	2	5	10	0	0	0	0	250	250	250	750	2000	0	BLOCKED	0.75	1	8	1	proud	At this moment	1	2	8	211	VLPFC	256.643733739853	0	13253.0061908776	-9.56934463222809	0.00212992644434409	38.903189039845	2657.62421972534	0	1703.28520199976	0.995681294137869	-0.000132871970917097	23.0765511776694	2435.15680245965	0	5	1	0	0	0	0
157.049464675546	2.51879921412467	reward_vlpfc	159.56826388967	30	2	5	10	0	0	0	0	250	250	250	750	2000	0	BLOCKED	0.75	1	9	1	interested	At this moment	2	2	8	211	VLPFC	241.237570643425	0	16331.9162177839	-12.8104638220451	0.00295596831223636	40.0486171686686	2621.79400749064	0	1964.20161257533	0.945726799521764	-0.000208274085359921	29.0110922921312	2588.47809377402	0	6	1	0	0	0	0
160.552302708507	2.51861937987806	reward_vlpfc	163.070922088385	31	2	5	10	0	0	0	0	250	250	250	750	2000	0	BLOCKED	0.75	-1	2	1	jittery	At this moment	2	2	8	211	VLPFC	241.136369943619	0.374531835205993	n/a	n/a	n/a	n/a	2639.08183632735	0	1656.63469702798	1.33344234370916	-0.000374195740799358	27.5729194652189	2477.11606456572	1	7	1	0	0	0	0
164.071910472155	2.51863066363333	reward_vlpfc	166.590541135788	32	2	5	10	0	0	0	0	250	250	250	750	2000	0	BLOCKED	0.75	1	10	1	afraid	At this moment	3	2	8	211	VLPFC	259.276367783546	0	16915.7346315446	-13.2360473997271	0.00302735494582811	47.4576340625919	2632.89263420724	0	2050.50360883512	0.995900390449007	-0.000237329730711986	31.5393686687608	2692.22751729439	0	8	1	0	0	0	0
167.608254115224	6.03805824017525	panas_none	173.646312355399	33	5	6	10	n/a	n/a	n/a	n/a	n/a	n/a	n/a	n/a	2000	0	BLOCKED	n/a	n/a	+	0	proud	At this moment	5	2	8	211	NONE	n/a	0.293383270911361	n/a	n/a	n/a	n/a	1712.96113074205	0	1992.76593556907	0.229554620573555	-0.000238977108883942	56.8247311959078	1992.96310530361	3	1	0	1	0	1	1
174.650572314024	6.01841856503486	panas_none	180.668990879059	34	5	6	10	n/a	n/a	n/a	n/a	n/a	n/a	n/a	n/a	2000	0	BLOCKED	n/a	n/a	+	0	distressed	At this moment	1	2	8	211	NONE	n/a	0	8215.88463248911	-6.29856371028733	0.00152018515405405	16.0010725188324	1773.93258426966	0	2331.55783514687	0.382220604174104	-0.000386367351763007	23.8844562005535	2322.53266717909	2	2	0	1	0	1	1
181.652782513618	6.05493798720838	panas_none	187.707720500827	35	5	6	10	n/a	n/a	n/a	n/a	n/a	n/a	n/a	n/a	2000	0	BLOCKED	n/a	n/a	+	0	guilty	At this moment	1	2	8	211	NONE	n/a	0	4583.05070399896	-2.41609095040836	0.000486505633902115	15.141028889407	1680.58926342072	0	1600.19662796315	0.265882265988522	-6.26019460048809e-05	24.8875676572497	1772.40199846272	1	3	0	1	0	1	1
188.708593931675	14.5283924958706	panas_none	203.236986427546	36	5	6	10	n/a	n/a	n/a	n/a	n/a	n/a	n/a	n/a	2000	0	BLOCKED	n/a	n/a	+	0	interested	At this moment	4	2	8	211	NONE	n/a	0	902.367231816132	1.74450037442481	-0.000425149310935728	18.4183557306341	2668.06616729089	0	1264.77136746355	1.26433556263956	-0.000241673559218591	25.095932166827	2140.97770945427	1	4	0	1	0	1	1
204.237821423173	2.51869766068458	reward_rtpj	206.756519083858	37	1	7	10	750	250	250	250	0	0	0	0	2000	0	BLOCKED	0.75	1	9	1	ashamed	At this moment	3	2	8	211	RTPJ	289.53966987133	0	16698.1162945369	-13.1983662048228	0.00307659087825587	56.1350899790354	2713.32084893883	0	1683.02487811882	1.33822313012861	-0.000322347129496195	20.1797750520936	2542.36664104535	0	1	1	0	0	0	0
207.757204217553	2.51897093832491	reward_rtpj	210.276175155878	38	1	7	10	750	250	250	250	0	0	0	0	2000	0	BLOCKED	0.75	1	3	-1	hostile	At this moment	1	2	8	211	RTPJ	289.924726963043	0	3936.62498406232	-1.04559506367958	0.000303003474213764	19.7588366398333	3093.03745318352	0	1577.22553895047	1.34357135103451	-0.00027874332623779	24.3877135367823	2478.91698693313	0	2	1	0	0	0	0
211.260126173258	2.51878722524643	reward_rtpj	213.778913398504	39	1	7	10	750	250	250	250	0	0	0	0	2000	0	BLOCKED	0.75	1	9	1	distressed	At this moment	1	2	8	211	RTPJ	239.632108330727	0	15223.2706368968	-11.8769064278483	0.00279758575944797	39.1231334955476	2767.911360799	0	2040.16408385501	0.883091785639516	-0.000186605420512559	24.3838976800932	2629.54112221368	0	3	1	0	0	0	0
214.779650014162	2.53544059240818	reward_rtpj	217.31509060657	40	1	7	10	750	250	250	250	0	0	0	0	2000	0	BLOCKED	0.75	-1	7	-1	irritable	At this moment	1	2	8	211	RTPJ	340.941267251968	0	4667.32461125246	-1.45709903397712	0.000316802435803094	32.0822226416108	3021.62421972534	0	2104.75667235628	0.886938138035494	-0.000173513711650886	30.0810071556687	2711.10222905457	0	4	1	0	0	0	0
218.315745062709	2.53550829470157	reward_rtpj	220.85125335741	41	1	7	10	750	250	250	250	0	0	0	0	2000	0	BLOCKED	0.75	-1	1	1	nervous	At this moment	3	2	8	211	RTPJ	89.9196492433548	0.413233458177278	n/a	n/a	n/a	n/a	2709.62340425532	0	1951.98491875209	1.29488905936478	-0.000408074742683587	24.4292844165945	2708.50115295926	1	5	1	0	0	0	0
221.852068959236	2.5186765036583	reward_rtpj	224.370745462894	42	1	7	10	750	250	250	250	0	0	0	0	2000	0	BLOCKED	0.75	1	9	1	proud	At this moment	1	2	8	211	RTPJ	289.367592930794	0	14639.6985228744	-11.1990092275352	0.00260901622026915	48.8693850459287	2766.33083645443	0	2236.97998208866	0.62500659211902	-7.29573513412865e-05	24.3799105859927	2705.28285933897	0	6	1	0	0	0	0
225.371577284932	2.51869977653027	reward_rtpj	227.890277061462	43	1	7	10	750	250	250	250	0	0	0	0	2000	0	BLOCKED	0.75	1	7	1	ashamed	At this moment	4	2	8	211	RTPJ	273.034049034119	0	16655.7935512193	-13.1565744394654	0.00302873597169636	47.6074517423673	2545.29213483146	0	1431.72990940667	1.61126632551455	-0.000422598855410853	31.9689461255481	2464.36049192929	0	7	1	0	0	0	0
228.874339505434	2.53553262531759	reward_rtpj	231.409872130752	44	1	7	10	750	250	250	250	0	0	0	0	2000	0	BLOCKED	0.75	-1	4	1	jittery	At this moment	5	2	8	211	RTPJ	297.346596837044	0	16090.7038158007	-12.7891316919785	0.00296944130342215	36.4995123616469	2477.33083645443	0	1766.46029756504	1.09435827905391	-0.000297454278144882	32.7000803729652	2440.7332820907	0	8	1	0	0	0	0
232.412224787474	6.03660722362994	panas_none	238.448832011104	45	5	8	10	n/a	n/a	n/a	n/a	n/a	n/a	n/a	n/a	2000	0	BLOCKED	n/a	n/a	+	0	active	At this moment	5	2	8	211	NONE	n/a	0	214.92598739761	1.47550165133446	-0.000349886961556241	14.4477545977346	1751.64794007491	0	1901.15748206558	0.21555092454516	-0.000163154124039274	58.5547179690519	1948.69254419677	2	1	0	1	0	1	0
239.449621871829	6.03831212413311	panas_none	245.487933995962	46	5	8	10	n/a	n/a	n/a	n/a	n/a	n/a	n/a	n/a	2000	0	BLOCKED	n/a	n/a	+	0	irritable	At this moment	1	2	8	211	NONE	n/a	0	4218.25035124801	-2.16948490944998	0.000532585241853445	32.6897915346898	2039.04868913858	0.251345119139124	n/a	n/a	n/a	n/a	2075.83367556468	2	2	0	1	0	1	0
246.488694942117	6.02154909324645	panas_none	252.510244035363	47	5	8	10	n/a	n/a	n/a	n/a	n/a	n/a	n/a	n/a	2000	0	BLOCKED	n/a	n/a	+	0	attentive	At this moment	5	2	8	211	NONE	n/a	0	2938.53432204429	-1.31712345219277	0.000366983612433279	20.5048478130783	1810.57178526841	0	1791.13726441872	-0.109674476126357	0.000167575027647301	25.3914070444505	1842.24596464258	2	3	0	1	0	1	0
253.5109993397	7.28931998980048	panas_none	260.8003193295	48	5	8	10	n/a	n/a	n/a	n/a	n/a	n/a	n/a	n/a	2000	0	BLOCKED	n/a	n/a	+	0	interested	At this moment	5	2	8	211	NONE	n/a	0	3330.09820191282	-0.488092501755557	0.000141155508049751	18.7849371736685	2934.76154806492	0	2117.07843002512	0.246477385144902	0.000138475844033031	46.6067609275981	2410.38201383551	0	4	0	1	0	1	0
261.806312397718	2.51405299758909	punish_vlpfc	264.320365395308	49	4	9	10	0	0	0	0	250	250	250	750	2000	0	BLOCKED	0.25	1	4	-1	guilty	At this moment	3	2	8	211	VLPFC	284.24160861969	0	5472.00333140538	-2.56688873881766	0.000641264440382071	25.3503871626315	2943.4556803995	0	1577.41197358373	1.14844283924755	-0.000177715159719035	33.3791960081805	2400.3043812452	0	1	0	0	1	0	0
265.320529714465	2.51883623898033	punish_vlpfc	267.839365953445	50	4	9	10	0	0	0	0	250	250	250	750	2000	0	BLOCKED	0.25	1	1	-1	nervous	At this moment	5	2	8	211	VLPFC	274.078146219254	0	4276.03136077135	-1.19541197011931	0.000292775492700884	22.9611103108731	3072.23970037453	0	2007.66041742025	0.961237476158628	-0.000161811500436722	33.9878172807493	2686.80092236741	0	2	0	0	1	0	0
268.823546171427	2.51869766080381	punish_vlpfc	271.342243832231	51	4	9	10	0	0	0	0	250	250	250	750	2000	0	BLOCKED	0.25	1	8	1	upset	At this moment	4	2	8	211	VLPFC	239.658907175064	0	18043.1062588886	-14.7331337669119	0.00345170609960574	48.7975750996761	2509.98751560549	0	1921.61821349241	1.10369582601556	-0.000291669844445615	25.9045893661184	2609.87471176018	0	3	0	0	1	0	0
272.343144767165	2.51869942378994	punish_vlpfc	274.861844190955	52	4	9	10	0	0	0	0	250	250	250	750	2000	0	BLOCKED	0.25	-1	7	-1	distressed	At this moment	1	2	8	211	VLPFC	339.661269545555	0	5710.28910468157	-2.72959520950715	0.000671464152794308	23.8287172308325	2974.46816479401	0	2104.27534712852	0.808610910694457	-0.000183277729244734	16.9025841375178	2633.11837048424	0	4	0	0	1	0	0
275.862583274841	2.51878193604944	punish_vlpfc	278.381365210891	53	4	9	10	0	0	0	0	250	250	250	750	2000	0	BLOCKED	0.25	1	4	-1	attentive	At this moment	4	2	8	211	VLPFC	311.109214782715	0.529338327091136	n/a	n/a	n/a	n/a	2832.02917771883	0	1821.38080919615	1.18737316318811	-0.000284381254056119	28.6992098149869	2589.68332052267	1	5	0	0	1	0	0
279.3988853091	2.51860562789443	punish_vlpfc	281.917490936995	54	4	9	10	0	0	0	0	250	250	250	750	2000	0	BLOCKED	0.25	1	0	-1	irritable	At this moment	5	2	8	211	VLPFC	423.423178911209	0	5446.48522610769	-2.31044520230872	0.000557301112860649	21.1349926508148	3081.31335830212	0	2000.75895367622	1.18739750776591	-0.000291047203733907	30.6456222041059	2759.19523443505	0	6	0	0	1	0	0
282.90699566257	2.51336010634896	punish_vlpfc	285.420355768919	55	4	9	10	0	0	0	0	250	250	250	750	2000	0	BLOCKED	0.25	1	0	-1	determined	At this moment	3	2	8	211	VLPFC	1101.49639821053	0.546816479400749	n/a	n/a	n/a	n/a	2935.53168044077	0	2171.84165446607	1.03506214561233	-0.000371780727289647	23.5242754949442	2730.80245964643	1	7	0	0	1	0	0
286.421034202814	2.51868884539607	punish_vlpfc	288.93972304821	56	4	9	10	0	0	0	0	250	250	250	750	2000	0	BLOCKED	0.25	-1	3	1	strong	At this moment	5	2	8	211	VLPFC	423.918604850769	0	9310.30201227913	-5.79499753009299	0.0012842194580449	30.6568558006239	2872.68164794007	0	1984.15227929448	1.03365216127027	-0.000190223468417234	37.3548236889965	2699.41967717141	0	8	0	0	1	0	0
289.944856790304	6.01749612033365	panas_none	295.962352910638	57	5	10	10	n/a	n/a	n/a	n/a	n/a	n/a	n/a	n/a	2000	0	BLOCKED	n/a	n/a	+	0	nervous	At this moment	2	2	8	211	NONE	n/a	0	5794.159726791	-3.84379845021904	0.000947881406055749	18.8157205524819	1952.96254681648	0	2067.77848917547	0.404883851106451	-0.000201533427008708	110.155145605045	2242.91160645657	3	1	0	1	0	0	1
296.962966463089	6.02158717584609	panas_none	302.984553638935	58	5	10	10	n/a	n/a	n/a	n/a	n/a	n/a	n/a	n/a	2000	0	BLOCKED	n/a	n/a	+	0	upset	At this moment	3	2	8	211	NONE	n/a	0	10657.3719680653	-8.00407889391336	0.00185664739698765	32.3191286804912	2134.53433208489	0	2174.48586843713	0.613383253613598	-0.000273494697111253	22.6270481567738	2464.08993082244	3	2	0	1	0	0	1
303.985360777736	6.02155826127529	panas_none	310.006919039011	59	5	10	10	n/a	n/a	n/a	n/a	n/a	n/a	n/a	n/a	2000	0	BLOCKED	n/a	n/a	+	0	hostile	At this moment	1	2	8	211	NONE	n/a	0.0137328339575531	4981.87145665302	-3.15761715543892	0.000818404987617221	26.8126951408866	2000.35063291139	0	1577.15669180846	0.681705861548151	-0.000341116980911329	61.49815563614	1856.58032282859	2	3	0	1	0	0	1
311.007854530215	10.0413488565683	panas_none	321.049203386784	60	5	10	10	n/a	n/a	n/a	n/a	n/a	n/a	n/a	n/a	2000	0	BLOCKED	n/a	n/a	+	0	afraid	At this moment	5	2	8	211	NONE	n/a	0	3472.60502906466	-1.11535054687159	0.00029858504930049	19.1411917730962	2462.99375780275	0	1685.89169358548	0.513486172019722	-9.54418573321077e-06	18.6266371524258	2113.98308993082	0	4	0	1	0	0	1
322.050088806629	2.51873997449877	punish_rtpj	324.568828781128	61	3	11	10	750	250	250	250	0	0	0	0	2000	0	BLOCKED	0.25	1	4	-1	inspired	At this moment	3	2	8	211	RTPJ	323.907074213028	0	2094.48282643953	0.57332309691739	-9.09280812607019e-05	27.8495480922513	2892.53183520599	0	1680.59200357906	1.11489455370791	-0.000245585725887195	20.333382216533	2416.12605687932	0	1	0	0	1	0	0
325.569550587058	2.51871846497056	punish_rtpj	328.088269052029	62	3	11	10	750	250	250	250	0	0	0	0	2000	0	BLOCKED	0.25	1	3	-1	active	At this moment	1	2	8	211	RTPJ	206.170575261116	0	3874.97453747037	-1.24083136840406	0.000370153525090496	23.5384551797145	2921.23720349563	0	2245.4020150435	0.586171966633129	-0.000135804075373521	27.166525529853	2626.58570330515	0	2	0	0	1	0	0
329.089112510443	2.53534996998309	punish_rtpj	331.624462480426	63	3	11	10	750	250	250	250	0	0	0	0	2000	0	BLOCKED	0.25	1	4	-1	interested	At this moment	4	2	8	211	RTPJ	241.018948554993	0.0873907615480649	6134.49958834912	-3.09964104426919	0.000775663647209576	25.6902468576177	3075.93023255814	0	2185.74527134985	0.782487277355535	-0.000141644750209205	24.13091334842	2735.8570330515	1	3	0	0	1	0	0
332.613069092035	2.51419686508177	punish_rtpj	335.127265957117	64	3	11	10	750	250	250	250	0	0	0	0	2000	0	BLOCKED	0.25	-1	7	-1	proud	At this moment	2	2	8	211	RTPJ	68.808505654335	0	5899.31825296465	-2.67078074660878	0.000660820840471945	38.9525737273746	3239.25343320849	0	2546.40630415906	0.686225709425913	-0.00015348330069734	29.8402004694465	2997.43428132206	0	4	0	0	1	0	0
336.12810906291	2.51879251444342	punish_rtpj	338.646901577354	65	3	11	10	750	250	250	250	0	0	0	0	2000	0	BLOCKED	0.25	1	1	-1	alert	At this moment	2	2	8	211	RTPJ	173.679442763329	0	6644.83381594819	-3.72701787383695	0.000931316351170579	21.8419957566297	2974.30337078652	0	2165.92550869223	0.889960203054669	-0.000241049301220941	38.2920110510035	2712.32205995388	0	5	0	0	1	0	0
339.651897446513	2.53112033641338	punish_rtpj	342.183017782927	66	3	11	10	750	250	250	250	0	0	0	0	2000	0	BLOCKED	0.25	-1	10	-1	determined	At this moment	3	2	8	211	RTPJ	235.099929690361	0	4020.65588784211	-0.965406691130299	0.000211771846431899	27.7351316945362	2938.66416978777	0	1547.72818414416	1.4841654538275	-0.000385846705509855	23.0905771875867	2495.13912375096	0	6	0	0	1	0	0
343.183752282739	2.51868108785152	punish_rtpj	345.70243337059	67	3	11	10	750	250	250	250	0	0	0	0	2000	0	BLOCKED	0.25	-1	2	1	strong	At this moment	1	2	8	211	RTPJ	356.340025305748	0.419475655430712	n/a	n/a	n/a	n/a	2600.61935483871	0	1933.21582927157	0.997033875275873	-0.000176446804568495	23.238783556363	2629.79323597233	1	7	0	0	1	0	0
346.703510966301	2.51851817893987	punish_rtpj	349.222029145241	68	3	11	10	750	250	250	250	0	0	0	0	2000	0	BLOCKED	0.25	1	7	1	attentive	At this moment	4	2	8	211	RTPJ	273.885970115662	0.404494382022472	n/a	n/a	n/a	n/a	2592.25995807128	0	1972.17503108837	1.4028263255215	-0.000474121408085638	23.1213732827745	2755.93774019985	1	8	0	0	1	0	0
350.224422705293	6.02006246256832	panas_none	356.244485167861	69	5	12	10	n/a	n/a	n/a	n/a	n/a	n/a	n/a	n/a	2000	0	BLOCKED	n/a	n/a	+	0	active	At this moment	5	2	8	211	NONE	n/a	0	2251.99946246202	0.00300369121507821	-4.80795608402218e-05	43.625786837438	2044.12858926342	0	1889.38879828929	0.787909108944064	-0.000428479005755596	42.036841163821	2197.14219830899	2	1	0	1	0	0	0
357.245224251747	6.03826028943064	panas_none	363.283484541178	70	5	12	10	n/a	n/a	n/a	n/a	n/a	n/a	n/a	n/a	2000	0	BLOCKED	n/a	n/a	+	0	afraid	At this moment	2	2	8	211	NONE	n/a	0	7685.74712355122	-5.71497034088719	0.00141466619633189	44.3406767819246	1996.77777777778	0	2194.03262945778	0.316350760879898	-0.000287416881561102	28.8693828143458	2215.74404304381	2	2	0	1	0	0	0
364.284256418467	6.02158717584609	panas_none	370.305843594313	71	5	12	10	n/a	n/a	n/a	n/a	n/a	n/a	n/a	n/a	2000	0	BLOCKED	n/a	n/a	+	0	strong	At this moment	5	2	8	211	NONE	n/a	0.398252184769039	n/a	n/a	n/a	n/a	1879.20124481328	0.229823212913144	1772.04272193359	0.585692857571081	-0.000285709622783627	77.9161509521182	2006.81936127745	2	3	0	1	0	0	0
371.30667189014	11.8262514443398	panas_none	383.132923334479	72	5	12	10	n/a	n/a	n/a	n/a	n/a	n/a	n/a	n/a	2000	0	BLOCKED	n/a	n/a	+	0	nervous	At this moment	1	2	8	211	NONE	n/a	0	1319.64750195379	0.978106114865667	-0.000144457983728046	20.6890559109367	2729.31585518102	0	1712.0262097904	0.753685384169983	-0.000102092517125066	18.5518005892434	2264.39123750961	1	4	0	1	0	0	0
384.13382955873	2.51862325859071	reward_vlpfc	386.652452817321	73	2	13	10	0	0	0	0	250	250	250	750	2000	0	BLOCKED	0.75	1	10	1	determined	At this moment	2	2	8	211	VLPFC	507.005958914757	0	11950.2563514569	-8.52016176580801	0.0019592679206436	38.6841757455284	2803.11111111111	0	1532.80028466352	1.06301424875249	-6.5418565399751e-05	19.1529446804064	2382.23289777095	0	1	1	0	0	0	0
387.653480341554	2.51845999729636	reward_vlpfc	390.17194033885	74	2	13	10	0	0	0	0	250	250	250	750	2000	0	BLOCKED	0.75	-1	8	-1	irritable	At this moment	3	2	8	211	VLPFC	205.755898475647	0	2467.60999723093	0.452750826062446	-7.59934660043666e-05	22.0272838231033	3078.61922596754	0	1877.47163797367	1.1282367487261	-0.000262365019553092	26.5830220159907	2608.79938508839	0	2	1	0	0	0	0
391.172847268224	2.51863489496708	reward_vlpfc	393.691482163191	75	2	13	10	0	0	0	0	250	250	250	750	2000	0	BLOCKED	0.75	-1	0	1	jittery	At this moment	1	2	8	211	VLPFC	280.239764928818	0	15823.8405325389	-12.2853451781339	0.00284151339209641	35.3874914633114	2702.74531835206	0	2092.33446958455	0.916098741572408	-0.000229482207430759	30.4770366779645	2673.62720983859	0	3	1	0	0	0	0
394.692367582917	2.51865252578261	reward_vlpfc	397.2110201087	76	2	13	10	0	0	0	0	250	250	250	750	2000	0	BLOCKED	0.75	1	6	1	hostile	At this moment	5	2	8	211	VLPFC	435.377227306366	0	12204.2974735641	-8.87741821273774	0.00203861692917287	41.6851956820856	2661.11235955056	0	1998.20731279194	0.699567379161813	-5.84038274261651e-05	28.0179644139048	2543.27363566487	0	4	1	0	0	0	0
398.211842057586	2.51873292231556	reward_vlpfc	400.730574979901	77	2	13	10	0	0	0	0	250	250	250	750	2000	0	BLOCKED	0.75	1	8	1	distressed	At this moment	1	2	8	211	VLPFC	322.933147788048	0	16593.9976688322	-13.2135020423906	0.00308888650990444	43.2394176445553	2632.12858926342	0	1593.84419078852	1.26158324866171	-0.000268814371542829	20.899260103512	2444.47963105304	0	5	1	0	0	0	0
401.731294317365	2.51914513099194	reward_vlpfc	404.250439448357	78	2	13	10	0	0	0	0	250	250	250	750	2000	0	BLOCKED	0.75	-1	9	-1	upset	At this moment	5	2	8	211	VLPFC	290.149696230888	0	4264.65416038833	-1.51462088297722	0.000393116813603343	18.9789611874761	2838.55430711611	0	1511.58607670697	1.7726254857465	-0.000607984402536092	32.2569672765112	2506.95926210607	0	6	1	0	0	0	0
405.234154565334	2.51872657513616	reward_vlpfc	407.75288114047	79	2	13	10	0	0	0	0	250	250	250	750	2000	0	BLOCKED	0.75	-1	4	1	determined	At this moment	4	2	8	211	VLPFC	189.740767002106	0	13253.9826166555	-9.98681359868004	0.00229536662263705	30.5280209028023	2522.10112359551	0	1591.4579965844	1.56756261987463	-0.000534948490870268	22.1404656596941	2463.60107609531	0	7	1	0	0	0	0
408.737031738758	2.51872692787646	reward_vlpfc	411.255758666635	80	2	13	10	0	0	0	0	250	250	250	750	2000	0	BLOCKED	0.75	1	10	1	excited	At this moment	5	2	8	211	VLPFC	524.40652012825	0	10496.1949486447	-6.9398011052511	0.00149130790221353	38.4794651159769	2578.34831460674	0	1854.39796840821	0.894270832613934	-0.0001747026246138	17.2197220240153	2463.59569561875	0	8	1	0	0	0	0
412.256604945898	6.02168767154217	panas_none	418.27829261744	81	5	14	10	n/a	n/a	n/a	n/a	n/a	n/a	n/a	n/a	2000	0	BLOCKED	n/a	n/a	+	0	proud	At this moment	5	2	8	211	NONE	n/a	0	1555.25486517033	0.189933312732947	-2.16114958141665e-05	21.5815627375271	1857.50312109863	0	1937.06182343004	0.0560878130451588	-0.000112463990665244	38.8341137597911	1894.80476556495	2	1	0	1	0	1	1
419.278934731841	6.02147892248627	panas_none	425.300413654327	82	5	14	10	n/a	n/a	n/a	n/a	n/a	n/a	n/a	n/a	2000	0	BLOCKED	n/a	n/a	+	0	active	At this moment	5	2	8	211	NONE	n/a	0	5131.8828164745	-2.69181339522031	0.000520605124031533	31.6609497211263	1803.38327091136	0.229823212913144	2388.35615855761	-0.816613488311808	0.00039191644365449	28.2550577202085	2044.7624750499	2	2	0	1	0	1	1
426.301152738333	6.02173739039898	panas_none	432.322890128732	83	5	14	10	n/a	n/a	n/a	n/a	n/a	n/a	n/a	n/a	2000	0	BLOCKED	n/a	n/a	+	0	interested	At this moment	5	2	8	211	NONE	n/a	0	6715.5005256714	-4.72172395023816	0.00110256239989746	37.763510990436	1720.02372034956	0	1817.00390180743	0.0815496469717847	-6.78443091916131e-05	30.1879566005943	1827.53727901614	3	3	0	1	0	1	1
433.323720187664	7.92304147160053	panas_none	441.246761659265	84	5	14	10	n/a	n/a	n/a	n/a	n/a	n/a	n/a	n/a	2000	0	BLOCKED	n/a	n/a	+	0	guilty	At this moment	2	2	8	211	NONE	n/a	0	5289.96186996876	-2.64106717384069	0.000633885645719687	16.7554543499064	2573.4581772784	0.235972328977709	1910.56047499298	0.859890707366775	-0.000340382200978159	35.2969272686188	2290.42253521127	2	4	0	1	0	1	1
442.247602296829	2.51865076255802	reward_rtpj	444.766253059387	85	1	15	10	750	250	250	250	0	0	0	0	2000	0	BLOCKED	0.75	-1	1	1	proud	At this moment	2	2	8	211	RTPJ	339.794205904007	0	14781.9092915555	-11.3823155742248	0.0026672422626202	42.0445157086621	2784.60549313358	0	1819.44853659509	1.29927263400908	-0.000332085702402165	26.8703622402336	2636.82705611068	0	1	1	0	0	0	0
445.750425167322	2.51853898322582	reward_rtpj	448.268964150548	86	1	15	10	750	250	250	250	0	0	0	0	2000	0	BLOCKED	0.75	1	10	1	active	At this moment	4	2	8	211	RTPJ	639.949745178223	0	7129.17208032623	-3.8552814607887	0.000870959280650174	27.8690761267253	2920.95755305868	0	2027.00204673015	0.84148027145813	-9.29087485317927e-05	84.5867449121501	2663.51114527287	0	2	1	0	0	0	0
449.270002605915	2.518668746233	reward_rtpj	451.788671352148	87	1	15	10	750	250	250	250	0	0	0	0	2000	0	BLOCKED	0.75	-1	4	1	inspired	At this moment	3	2	8	211	RTPJ	568.001190423965	0	14630.6638463087	-11.0075968868558	0.00251974854734384	49.607506492035	2761.37453183521	0	2331.8269695256	0.529465426090915	-5.42601207668881e-05	20.5443135283606	2734.93159108378	0	3	1	0	0	0	0
452.78943441391	2.55208408641812	reward_rtpj	455.341518500328	88	1	15	10	750	250	250	250	0	0	0	0	2000	0	BLOCKED	0.75	1	7	1	guilty	At this moment	2	2	8	211	RTPJ	322.918338060379	0	12020.7684793681	-8.67767321371453	0.0019693333283248	30.9145179452508	2586.99126092385	0	1727.66883349478	1.45399233330386	-0.000446351507984246	21.6240436489688	2586.9623366641	0	4	1	0	0	0	0
456.342297429919	2.5354081517458	reward_rtpj	458.877705581665	89	1	15	10	750	250	250	250	0	0	0	0	2000	0	BLOCKED	0.75	-1	7	-1	distressed	At this moment	4	2	8	211	RTPJ	490.057804465294	0.369538077403246	n/a	n/a	n/a	n/a	2862.5603960396	0	1671.56630290927	1.37427332180071	-0.000387105453567105	23.8319544417731	2506.66717909301	1	5	1	0	0	0	0
459.878503552556	2.51877241539955	reward_rtpj	462.397275967956	90	1	15	10	750	250	250	250	0	0	0	0	2000	0	BLOCKED	0.75	-1	7	-1	proud	At this moment	2	2	8	211	RTPJ	173.170264720917	0	7212.22117969657	-4.33176904279965	0.00107838101152486	33.9429796193806	2928.64794007491	0	2049.40472634708	0.912951819742677	-0.000229987842019111	24.4951239168104	2628.32436587241	0	6	1	0	0	0	0
463.39810003233	2.53535949075217	reward_rtpj	465.933459523082	91	1	15	10	750	250	250	250	0	0	0	0	2000	0	BLOCKED	0.75	-1	4	1	attentive	At this moment	2	2	8	211	RTPJ	40.6771222352982	0	14314.7482121403	-10.7825668267009	0.00246818766660992	41.3597580700273	2686.21098626717	0	1625.68781153664	1.4721405859576	-0.000425724652834454	27.8563136539884	2519.31975403536	0	7	1	0	0	0	0
466.942536221743	2.51041434895996	reward_rtpj	469.452950570703	92	1	15	10	750	250	250	250	0	0	0	0	2000	0	BLOCKED	0.75	1	6	1	scared	At this moment	2	2	8	211	RTPJ	399.154002785683	0	11940.8238867334	-8.64108325810969	0.00196233889136679	41.8172826013437	2553.67540574282	0	1637.31454868228	1.31558400776757	-0.000346931120384871	24.7773196708449	2457.70407378939	0	8	1	0	0	0	0
470.45379508698	6.02157730245591	panas_none	476.475372389436	93	5	16	10	n/a	n/a	n/a	n/a	n/a	n/a	n/a	n/a	2000	0	BLOCKED	n/a	n/a	+	0	strong	At this moment	5	2	8	211	NONE	n/a	0.373283395755306	n/a	n/a	n/a	n/a	1681.82470119522	0	1935.4893832109	0.126867749316462	-0.000166871585458041	58.2776321212588	1902.31591083782	3	1	0	1	0	1	0
477.459510293484	6.05481809747221	panas_none	483.514328390956	94	5	16	10	n/a	n/a	n/a	n/a	n/a	n/a	n/a	n/a	2000	0	BLOCKED	n/a	n/a	+	0	proud	At this moment	4	2	8	211	NONE	n/a	0	3124.84491853657	-1.38201804459356	0.000336746543375931	19.4198332894343	1725.20973782772	0	1897.1923129386	-0.151783203378786	9.29534323300034e-05	28.2534342332272	1848.28670253651	2	2	0	1	0	1	0
484.515714526057	6.02101805293557	panas_none	490.536732578993	95	5	16	10	n/a	n/a	n/a	n/a	n/a	n/a	n/a	n/a	2000	0	BLOCKED	n/a	n/a	+	0	distressed	At this moment	1	2	8	211	NONE	n/a	0	2854.28734322179	-0.911999398835361	0.000210641535123108	29.6402537412676	1879.46816479401	0	1840.94982344462	0.589965180763058	-0.000266379542992194	40.8949935474724	2114.41967717141	1	3	0	1	0	1	0
491.537669480681	8.72395883834361	panas_none	500.261628319025	96	5	16	10	n/a	n/a	n/a	n/a	n/a	n/a	n/a	n/a	2000	0	BLOCKED	n/a	n/a	+	0	irritable	At this moment	1	2	8	211	NONE	n/a	0	2063.40654465005	0.0876386669974474	2.93846135498754e-05	17.7708813614785	2378.53807740325	0	1329.08398125652	0.73841266501533	-5.65402097003795e-05	28.3825242265632	1908.73020753267	0	4	0	1	0	1	0
