onset	duration	trial_type	offset	trial	block	blockCntr	frequency	amplitude_1	amplitude_2	amplitude_3	amplitude_4	amplitude_5	amplitude_6	amplitude_7	amplitude_8	transition	sham	mode	rewardFraction	guess	outcome	correct	word	when	answer	runNr	scanNr	subjectNr	target	reactionTime	outcomeEyeClosed	outcomeParms_1	outcomeParms_2	outcomeParms_3	outcomeSigma	outcomePupilArea	guessEyeClosed	guessParms_1	guessParms_2	guessParms_3	guessSigma	guessPupilArea	nrBlinks	trialInBlock	isReward	isPanas	isPunish	beforePanasReward	beforePanasVLPFC
20.3909750654697	2.51351737320423	reward_vlpfc	22.904492438674	1	2	1	10	0	0	0	0	250	250	250	750	2000	0	BLOCKED	0.75	1	6	1	alert	At this moment	3	3	12	211	VLPFC	752.167797446251	0	18550.5188362843	-14.9972541571898	0.00350440031012838	42.0377831306819	2697.64544319601	0	1965.11939495258	-0.0611897983258368	0.000483706901730274	47.4921106506364	2330.87086856264	0	1	1	0	0	0	0
23.9052815941572	2.53547655928135	reward_vlpfc	26.4407581534386	2	2	1	10	0	0	0	0	250	250	250	750	2000	0	BLOCKED	0.75	-1	10	-1	strong	At this moment	3	3	12	211	VLPFC	224.31586253643	0	8981.54312723315	-5.49991038045122	0.00124876941636514	24.8936393578267	3003.6329588015	0	1842.64805599623	1.11533990945	-0.000172528915983343	23.4576353505997	2641.00461183705	0	2	1	0	0	0	0
27.4270540698767	2.51657878887653	reward_vlpfc	29.9436328587532	3	2	1	10	0	0	0	0	250	250	250	750	2000	0	BLOCKED	0.75	-1	4	1	attentive	At this moment	3	3	12	211	VLPFC	288.316091060638	0	21824.4414052449	-18.1081148979388	0.00422010249472901	59.2941939034394	2631.29962546816	0	1575.23251255657	1.56411355092702	-0.000397306961812252	22.3242356727345	2564.30591852421	0	3	1	0	0	0	0
30.9443109400272	2.51868249809742	reward_vlpfc	33.4629934381247	4	2	1	10	0	0	0	0	250	250	250	750	2000	0	BLOCKED	0.75	1	8	1	distressed	At this moment	2	3	12	211	VLPFC	241.023532509804	0	19065.669304421	-15.3128858429836	0.00352064901199576	64.6597660960066	2622.44069912609	0	2030.40722999974	0.832935925365813	-8.527150055021e-05	20.6950576495775	2664.72867025365	0	4	1	0	0	0	0
34.4638097451925	2.51870894443989	reward_vlpfc	36.9825186896324	5	2	1	10	0	0	0	0	250	250	250	750	2000	0	BLOCKED	0.75	1	6	1	irritable	At this moment	1	3	12	211	VLPFC	257.39445400238	0	18248.870497822	-14.8934153563444	0.00348847511759042	52.878814381648	2543.5493133583	0	1852.9203421239	0.828858524345042	-8.70762420205083e-05	30.6808050917183	2482.03305149885	0	5	1	0	0	0	0
37.9833053767681	2.51880238771438	reward_vlpfc	40.5021077644825	6	2	1	10	0	0	0	0	250	250	250	750	2000	0	BLOCKED	0.75	-1	0	1	guilty	At this moment	5	3	12	211	VLPFC	240.680084228516	0	17106.9126375613	-13.6072521943926	0.00312005730571353	48.6305787400321	2457.43196004994	0	1579.50315874791	1.19590651043077	-0.000236393312869026	25.4915814184191	2392.21368178324	0	6	1	0	0	0	0
41.5059868975878	2.51585627770424	reward_vlpfc	44.021843175292	7	2	1	10	0	0	0	0	250	250	250	750	2000	0	BLOCKED	0.75	1	7	1	enthusiastic	At this moment	5	3	12	211	VLPFC	369.935150146484	0	18092.8247243709	-14.4707862200959	0.00333826921213903	68.1433475137982	2604.34831460674	0	1372.02089464562	1.84615116715217	-0.000501244136248821	24.4701804068029	2561.61260568793	0	7	1	0	0	0	0
45.0223756260872	2.51878793048859	reward_vlpfc	47.5411635565758	8	2	1	10	0	0	0	0	250	250	250	750	2000	0	BLOCKED	0.75	1	2	-1	afraid	At this moment	3	3	12	211	VLPFC	122.7968968153	0	6148.36843719971	-3.19798180432222	0.000764298711604025	22.3048653902794	2843.79525593009	0	1585.37811588765	1.45750236123223	-0.000432333214903316	22.3290325540911	2463.16525749423	0	8	1	0	0	0	0
48.5653209532499	6.04814024817944	panas_none	54.6134612014294	9	5	2	10	n/a	n/a	n/a	n/a	n/a	n/a	n/a	n/a	2000	0	BLOCKED	n/a	n/a	+	0	interested	At this moment	5	3	12	211	NONE	n/a	0.238451935081149	5889.93544389607	-4.37394122098554	0.00108568145663284	14.3859266368557	1518.43442622951	0	1601.46916157119	1.02955858916895	-0.000637348185571717	60.2210918971608	1949.48731744812	2	1	0	1	0	1	1
55.6143113596439	6.02160868537426	panas_none	61.6359200450182	10	5	2	10	n/a	n/a	n/a	n/a	n/a	n/a	n/a	n/a	2000	0	BLOCKED	n/a	n/a	+	0	alert	At this moment	5	3	12	211	NONE	n/a	0	4385.07691795111	-1.93545656912228	0.000404455295650023	22.975254492569	2121.8102372035	0	2501.3902680676	0.0379028119771563	-4.46304603828224e-05	49.3227152227854	2495.48424289008	0	2	0	1	0	1	1
62.63658155334	6.03828638315201	panas_none	68.674867936492	11	5	2	10	n/a	n/a	n/a	n/a	n/a	n/a	n/a	n/a	2000	0	BLOCKED	n/a	n/a	+	0	determined	At this moment	5	3	12	211	NONE	n/a	0	-1775.71572280393	3.9034364445416	-0.000998671843988414	22.8056719697733	1963.95255930087	0.128362797847809	2368.26161382392	0.331414556305115	-0.000322279208794071	25.34405972245	2398.1102292769	2	3	0	1	0	1	1
69.6815711741448	8.15073786735535	panas_none	77.8323090415001	12	5	2	10	n/a	n/a	n/a	n/a	n/a	n/a	n/a	n/a	2000	0	BLOCKED	n/a	n/a	+	0	enthusiastic	At this moment	5	3	12	211	NONE	n/a	0	3100.9083536126	-0.192740259897684	7.41448772401926e-05	21.5830938125822	3026.82147315855	0	2088.68073290122	0.580837380094302	-1.95233611789109e-05	27.5127032259102	2566.00845503459	0	4	0	1	0	1	1
78.8164994853735	2.51868531918525	punish_vlpfc	81.3351848045588	13	4	3	10	0	0	0	0	250	250	250	750	2000	0	BLOCKED	0.25	-1	10	-1	guilty	At this moment	4	3	12	211	VLPFC	306.501223802567	0	6905.79974259996	-3.70096760224262	0.000853407349233687	29.3251764520491	2942.62047440699	0	1735.96413601862	1.01574712809328	-8.50250653058454e-05	19.7503379175465	2525.52651806303	0	1	0	0	1	0	0
82.336044483304	2.53531470835209	punish_vlpfc	84.8713591916561	14	4	3	10	0	0	0	0	250	250	250	750	2000	0	BLOCKED	0.25	-1	7	-1	scared	At this moment	4	3	12	211	VLPFC	756.642499566078	0.434456928838951	n/a	n/a	n/a	n/a	2992.54746136865	0	2152.27300804907	0.351948851529231	0.000136979971251428	64.3190447290379	2570.73789392775	1	2	0	0	1	0	0
85.8768578916788	2.51408367526531	punish_vlpfc	88.3909415669441	15	4	3	10	0	0	0	0	250	250	250	750	2000	0	BLOCKED	0.25	-1	7	-1	active	At this moment	4	3	12	211	VLPFC	352.652010321617	0	6541.34080777991	-3.40131619502414	0.00085473564383851	41.8133371525201	3213.48813982522	0	2498.12708466278	0.354952134730255	4.83741094980036e-05	38.1606435288229	2840.88239815527	0	3	0	0	1	0	0
89.3917857304811	2.51867015671731	punish_vlpfc	91.9104558871985	16	4	3	10	0	0	0	0	250	250	250	750	2000	0	BLOCKED	0.25	-1	2	1	inspired	At this moment	5	3	12	211	VLPFC	306.087957382202	0	18103.4215240829	-14.2338772008077	0.00324480771280455	49.5828723955408	2693.95880149813	0	1998.160895977	1.08735965837681	-0.000246983648451988	24.4655573859498	2709.3235972329	0	4	0	0	1	0	0
92.899062851429	2.53083859586717	punish_vlpfc	95.4299014472961	17	4	3	10	0	0	0	0	250	250	250	750	2000	0	BLOCKED	0.25	-1	10	-1	attentive	At this moment	2	3	12	211	VLPFC	218.322441577911	0	9963.78114952808	-6.67189865484884	0.00156022474145079	39.5717462257151	2916.01997503121	0	1877.18769753271	1.50872760383831	-0.000488021568532082	21.8233331128616	2738.35434281322	0	5	0	0	1	0	0
96.430784751296	2.51864617884159	punish_vlpfc	98.9494309301376	18	4	3	10	0	0	0	0	250	250	250	750	2000	0	BLOCKED	0.25	1	1	-1	afraid	At this moment	5	3	12	211	VLPFC	557.695976257324	0	8152.28794025757	-4.91982702586957	0.00113943505935122	29.1579436873317	2906.29588014981	0	2011.81177842405	1.0438675755992	-0.00028011145546443	16.5453690745517	2657.39123750961	0	6	0	0	1	0	0
99.9504478758573	2.51890499901772	punish_vlpfc	102.469352874875	19	4	3	10	0	0	0	0	250	250	250	750	2000	0	BLOCKED	0.25	1	1	-1	ashamed	At this moment	4	3	12	211	VLPFC	390.641842842102	0	9904.25854080414	-6.31012888595497	0.00134845550586203	98.4630149896049	2667.822721598	0.265180630284397	n/a	n/a	n/a	n/a	2419.66841004184	1	7	0	0	1	0	0
103.469798229456	2.51871564412117	punish_vlpfc	105.988513873577	20	4	3	10	0	0	0	0	250	250	250	750	2000	0	BLOCKED	0.25	1	9	1	jittery	At this moment	5	3	12	211	VLPFC	273.379260420799	0	14347.5831423539	-10.4757550142993	0.00234281807022304	32.6238824127515	2798.59925093633	0	2061.57137451269	0.805283398479478	-7.63905252833003e-05	23.9986615640948	2679.29669485012	0	8	0	0	1	0	0
106.989333001494	6.02160057520867	panas_none	113.010933576703	21	5	4	10	n/a	n/a	n/a	n/a	n/a	n/a	n/a	n/a	2000	0	BLOCKED	n/a	n/a	+	0	guilty	At this moment	4	3	12	211	NONE	n/a	0.373283395755306	n/a	n/a	n/a	n/a	2697.87450199203	0	1474.66109781717	1.77116245549839	-0.000499386524245345	111.619912523992	2553.85857033051	3	1	0	1	0	0	1
114.011778798103	6.02139006316662	panas_none	120.03316886127	22	5	4	10	n/a	n/a	n/a	n/a	n/a	n/a	n/a	n/a	2000	0	BLOCKED	n/a	n/a	+	0	inspired	At this moment	5	3	12	211	NONE	n/a	0.222222222222222	4099.17068654735	-1.78009657078053	0.000378521649214865	17.7321307522423	2062.71107544141	0	2538.18745294434	-0.14811446689634	6.8318231352857e-05	27.6398441247536	2471.66948501153	1	2	0	1	0	0	1
121.034355768204	6.0213643220663	panas_none	127.05572009027	23	5	4	10	n/a	n/a	n/a	n/a	n/a	n/a	n/a	n/a	2000	0	BLOCKED	n/a	n/a	+	0	hostile	At this moment	1	3	12	211	NONE	n/a	0.136079900124844	12908.7982790043	-10.0304585724179	0.00231903816514514	27.907707174845	2186.6950867052	0	2807.10044275643	-0.546057729906662	0.000292137838078862	41.9690996294757	2594.84012298232	1	3	0	1	0	0	1
128.05633364284	5.20428372502329	panas_none	133.260617367864	24	5	4	10	n/a	n/a	n/a	n/a	n/a	n/a	n/a	n/a	2000	0	BLOCKED	n/a	n/a	+	0	distressed	At this moment	2	3	12	211	NONE	n/a	0	3209.29408963446	-0.634804723770293	0.000175000844694649	23.6027695020265	2656.79650436954	0.274404304381245	n/a	n/a	n/a	n/a	2232.19279661017	1	4	0	1	0	0	1
134.261422743678	2.51876642096045	punish_rtpj	136.780189164639	25	3	5	10	750	250	250	250	0	0	0	0	2000	0	BLOCKED	0.25	1	10	1	proud	At this moment	4	3	12	211	RTPJ	315.579332947731	0	15047.6793391903	-11.5844372223282	0.00269849627463695	52.8833689050661	2764.47690387016	0	1818.68426449378	1.00439457255167	-0.00010973545776603	37.1361264048853	2578.95849346656	0	1	0	0	1	0	0
137.764348930955	2.51867615103723	punish_rtpj	140.283025081992	26	3	5	10	750	250	250	250	0	0	0	0	2000	0	BLOCKED	0.25	1	3	-1	excited	At this moment	4	3	12	211	RTPJ	306.71032512188	0	6421.75253294752	-3.55396619680515	0.000894661083824264	18.7831366621223	2951.7315855181	0	1753.24960038857	1.14757624691697	-0.000224180121549141	28.6669130570798	2536.49961568025	0	2	0	0	1	0	0
141.283764165997	2.51883870720863	punish_rtpj	143.802602873206	27	3	5	10	750	250	250	250	0	0	0	0	2000	0	BLOCKED	0.25	1	4	-1	interested	At this moment	1	3	12	211	RTPJ	306.242403268814	0	5092.68686022991	-2.12936170739495	0.000524750970295253	21.6004843938857	2963.49937578027	0	1835.24481101797	1.22540893277314	-0.000326525182451214	27.5810135096826	2607.46963873943	0	3	0	0	1	0	0
144.803432227015	2.51862678480148	punish_rtpj	147.322059011817	28	3	5	10	750	250	250	250	0	0	0	0	2000	0	BLOCKED	0.25	1	2	-1	enthusiastic	At this moment	4	3	12	211	RTPJ	27.7918138504028	0	4055.01646228067	-1.30024708372222	0.000384591445831073	26.8191813078863	3041.42946317104	0	2152.23957220436	0.794339461594276	-0.000200642727158407	19.6517576532488	2654.13604919293	0	4	0	0	1	0	0
148.306246634722	2.51875654768943	punish_rtpj	150.825003182411	29	3	5	10	750	250	250	250	0	0	0	0	2000	0	BLOCKED	0.25	1	8	1	upset	At this moment	5	3	12	211	RTPJ	173.170617341995	0	14290.6455917825	-10.5209312657896	0.00242153069924615	42.9746469620277	3004.59675405743	0	2261.30522057668	0.935219066091245	-0.000194448141561524	25.9957725832589	2891.71099154497	0	5	0	0	1	0	0
151.816749843001	2.51099228727819	punish_rtpj	154.32774213028	30	3	5	10	750	250	250	250	0	0	0	0	2000	0	BLOCKED	0.25	1	0	-1	irritable	At this moment	2	3	12	211	RTPJ	766.682193636894	0	7946.67509090196	-4.86399322529925	0.00117375259982747	34.3063602564032	2970.92009987516	0	1763.85020492682	1.49318059467117	-0.000478070985837605	24.9254467351059	2620.73020753267	0	6	0	0	1	0	0
155.332952742696	2.51432909619808	punish_rtpj	157.847281838894	31	3	5	10	750	250	250	250	0	0	0	0	2000	0	BLOCKED	0.25	-1	7	-1	afraid	At this moment	1	3	12	211	RTPJ	452.30598783493	0.543071161048689	n/a	n/a	n/a	n/a	2750.91803278689	0	2165.6110666871	0.988984725842988	-0.000331311694384819	28.5175054012824	2719.78862413528	1	7	0	0	1	0	0
158.831605924487	2.51853193092344	punish_rtpj	161.350137855411	32	3	5	10	750	250	250	250	0	0	0	0	2000	0	BLOCKED	0.25	-1	9	-1	interested	At this moment	5	3	12	211	RTPJ	553.747025132179	0	11121.7572282425	-7.8201012762391	0.00184800707489665	30.7178514031754	2947.50187265918	0	2638.15957356138	0.0385043373341863	0.000151750947109784	18.1648561451532	2801.9715603382	0	8	0	0	1	0	0
162.351210161805	6.0212631213665	panas_none	168.372473283172	33	5	6	10	n/a	n/a	n/a	n/a	n/a	n/a	n/a	n/a	2000	0	BLOCKED	n/a	n/a	+	0	jittery	At this moment	2	3	12	211	NONE	n/a	0	3924.35486494074	-1.92928378848962	0.00048750925853535	31.4635824666176	2047.56928838951	0	1939.39073444356	0.679143740038312	-0.000287292711556376	125.895850553729	2270.52498078401	2	1	0	1	0	0	0
169.373287121773	6.02160057520868	panas_none	175.394887696981	34	5	6	10	n/a	n/a	n/a	n/a	n/a	n/a	n/a	n/a	2000	0	BLOCKED	n/a	n/a	+	0	strong	At this moment	4	3	12	211	NONE	n/a	0	865.360519915227	1.66652886022961	-0.000465463010779198	21.3717057351124	2287.31960049938	0	2293.90116834244	0.581842151706306	-0.000323548799852186	27.8639044224109	2504.21752498078	2	2	0	1	0	0	0
176.395559431195	6.03835831689833	panas_none	182.433917748094	35	5	6	10	n/a	n/a	n/a	n/a	n/a	n/a	n/a	n/a	2000	0	BLOCKED	n/a	n/a	+	0	proud	At this moment	1	3	12	211	NONE	n/a	0	3512.28198608911	-1.55885862823881	0.000399920605786199	24.5008880891966	2024.54057428215	0	2038.74278123765	0.521904601220256	-0.000385642241138246	61.3483104365424	2151.37279016141	3	3	0	1	0	0	0
183.418054594278	13.2774223599434	panas_none	196.695476954222	36	5	6	10	n/a	n/a	n/a	n/a	n/a	n/a	n/a	n/a	2000	0	BLOCKED	n/a	n/a	+	0	scared	At this moment	2	3	12	211	NONE	n/a	0	2679.22439100677	-0.0703144772168743	8.99164371564588e-05	21.6510594908327	2932.59925093633	0.255956956187548	n/a	n/a	n/a	n/a	2616.2479338843	1	4	0	1	0	0	0
197.679525646448	2.53570681774616	punish_rtpj	200.215232464194	37	3	7	10	750	250	250	250	0	0	0	0	2000	0	BLOCKED	0.25	1	1	-1	active	At this moment	4	3	12	211	RTPJ	491.139631390572	0	6191.95501085493	-3.20377787893811	0.000813108218245268	24.3313482555273	3093.13607990012	0	1910.18275383166	1.07873872425733	-0.00022483894421282	28.0495279609757	2633.11760184473	0	1	0	0	1	0	0
201.203376090407	2.51452127218246	punish_rtpj	203.71789736259	38	3	7	10	750	250	250	250	0	0	0	0	2000	0	BLOCKED	0.25	1	0	-1	nervous	At this moment	2	3	12	211	RTPJ	249.222921729088	0	5668.30529255707	-2.660275544904	0.000649483941099229	25.4397200789418	2980.74406991261	0	2054.38659109393	0.92863248654705	-0.000233842374709493	21.8364293099374	2642.56033820138	0	2	0	0	1	0	0
204.718744699717	2.51870153951643	punish_rtpj	207.237446239233	39	3	7	10	750	250	250	250	0	0	0	0	2000	0	BLOCKED	0.25	-1	10	-1	strong	At this moment	4	3	12	211	RTPJ	139.053570628166	0	6636.27953607083	-3.44971747998305	0.000812773762851171	26.1986803987967	3019.47565543071	0	2015.03057959078	1.00650321690725	-0.000241705150042175	36.0403320497968	2662.19215987702	0	3	0	0	1	0	0
208.221414182305	2.51876113152505	punish_rtpj	210.74017531383	40	3	7	10	750	250	250	250	0	0	0	0	2000	0	BLOCKED	0.25	-1	2	1	guilty	At this moment	1	3	12	211	RTPJ	72.7888394594193	0	14990.5824548362	-11.5042586496116	0.00263863662067167	59.9969129520688	2608.85767790262	0	1996.28351702122	1.38960250910859	-0.000486890772064306	27.7262347600099	2757.01767870869	0	4	0	0	1	0	0
211.724217658877	2.51877770459652	punish_rtpj	214.242995363474	41	3	7	10	750	250	250	250	0	0	0	0	2000	0	BLOCKED	0.25	-1	8	-1	proud	At this moment	3	3	12	211	RTPJ	241.258727669716	0.374531835205993	n/a	n/a	n/a	n/a	2710.87225548902	0	1947.11970314756	0.958458907108441	-0.000290021664839878	27.3887373266045	2511.25288239816	1	5	0	0	1	0	0
215.227248573065	2.5353482068777	punish_rtpj	217.762596779942	42	3	7	10	750	250	250	250	0	0	0	0	2000	0	BLOCKED	0.25	-1	8	-1	active	At this moment	2	3	12	211	RTPJ	141.324067592621	0	2813.62362902833	-0.238527121869078	0.000103700831128205	23.3014046766046	2775.3695380774	0.299769408147579	n/a	n/a	n/a	n/a	2467.02744237102	1	6	0	0	1	0	0
218.746784050345	2.51859399139883	punish_rtpj	221.265378041744	43	3	7	10	750	250	250	250	0	0	0	0	2000	0	BLOCKED	0.25	1	9	1	afraid	At this moment	2	3	12	211	RTPJ	306.230767011642	0	15710.6039130696	-11.9134129469449	0.00268246634847956	35.2251540998221	2662.78651685393	0	2061.41796816025	0.99607321671306	-0.000200713960278496	35.75652949057	2737.46195234435	0	7	0	0	1	0	0
222.266211274385	2.53537817931175	punish_rtpj	224.801589453697	44	3	7	10	750	250	250	250	0	0	0	0	2000	0	BLOCKED	0.25	-1	10	-1	ashamed	At this moment	5	3	12	211	RTPJ	883.975806236267	0.521847690387016	n/a	n/a	n/a	n/a	2972.80156657963	0	1527.90393553565	1.72542780233719	-0.000522423821976784	29.3673943830051	2555.84166026134	1	8	0	0	1	0	0
225.802469231606	6.02159916472436	panas_none	231.82406839633	45	5	8	10	n/a	n/a	n/a	n/a	n/a	n/a	n/a	n/a	2000	0	BLOCKED	n/a	n/a	+	0	alert	At this moment	5	3	12	211	NONE	n/a	0.454431960049938	n/a	n/a	n/a	n/a	1682.58123569794	0.00691775557263643	2904.39439094499	-1.20075068526577	0.000354985685961121	87.0708338083247	2189.3273993808	4	1	0	1	0	0	0
232.808035634041	6.03833469152451	panas_none	238.846370325565	46	5	8	10	n/a	n/a	n/a	n/a	n/a	n/a	n/a	n/a	2000	0	BLOCKED	n/a	n/a	+	0	jittery	At this moment	2	3	12	211	NONE	n/a	0	9131.80007067136	-6.67099942346103	0.00160914730792473	36.9272252070245	2303.86641697878	0	2526.93560630936	0.753793928046956	-0.00050456986636788	24.0749827946973	2731.75941583397	2	2	0	1	0	0	0
239.847125629783	6.03813017404079	panas_none	245.885255803823	47	5	8	10	n/a	n/a	n/a	n/a	n/a	n/a	n/a	n/a	2000	0	BLOCKED	n/a	n/a	+	0	scared	At this moment	2	3	12	211	NONE	n/a	0	1339.90325625975	0.690544356093718	-0.00015866622292707	17.313213870785	2082.10486891386	0	2316.67542615842	0.0379166513507833	-0.000107782689750845	29.2096941174301	2255.49116064566	2	3	0	1	0	0	0
246.88652275455	11.3088207343817	panas_none	258.195343488932	48	5	8	10	n/a	n/a	n/a	n/a	n/a	n/a	n/a	n/a	2000	0	BLOCKED	n/a	n/a	+	0	ashamed	At this moment	3	3	12	211	NONE	n/a	0	3030.32618848666	-0.220120607367254	3.67959228998179e-05	20.2045286655535	2732.15730337079	0.272098385857033	n/a	n/a	n/a	n/a	2459.27771911299	1	4	0	1	0	0	0
259.179575188875	2.51863383722304	punish_vlpfc	261.698209026098	49	4	9	10	0	0	0	0	250	250	250	750	2000	0	BLOCKED	0.25	1	2	-1	afraid	At this moment	2	3	12	211	VLPFC	574.297156214714	0	4731.19964390558	-2.02304159769026	0.000480418777631538	26.054503844537	2626.61048689139	0	1444.23814413851	1.14339437190241	-0.000233547811331209	23.3407664739109	2214.56879323597	0	1	0	0	1	0	0
262.682373023748	2.5187135283947	punish_vlpfc	265.201086552143	50	4	9	10	0	0	0	0	250	250	250	750	2000	0	BLOCKED	0.25	1	2	-1	attentive	At this moment	5	3	12	211	VLPFC	240.210751771927	0	4607.38215928433	-1.94335142176588	0.00049830217691852	25.1050238360357	2750.79151061174	0.284396617986165	n/a	n/a	n/a	n/a	2437.69172932331	2	2	0	0	1	0	0
266.201907090545	2.51874138522146	punish_vlpfc	268.720648475766	51	4	9	10	0	0	0	0	250	250	250	750	2000	0	BLOCKED	0.25	1	10	1	guilty	At this moment	4	3	12	211	VLPFC	280.991190552711	0	12443.3136209603	-8.85280737169655	0.00198537007735315	30.2114013743172	2708.82147315855	0.305149884704074	n/a	n/a	n/a	n/a	2730.73008849558	1	3	0	0	1	0	0
269.726651769876	2.51359107005595	punish_vlpfc	272.240242839932	52	4	9	10	0	0	0	0	250	250	250	750	2000	0	BLOCKED	0.25	1	4	-1	proud	At this moment	1	3	12	211	VLPFC	267.519128441811	0	8013.6632468002	-4.84775088528771	0.00113351788404408	39.764692543371	2892.71535580524	0	2211.52523339397	0.624260828361888	-9.40165074094841e-05	23.9375092583214	2661.94004611837	0	4	0	0	1	0	0
273.224254154682	2.5353478542566	punish_vlpfc	275.759602008939	53	4	9	10	0	0	0	0	250	250	250	750	2000	0	BLOCKED	0.25	1	0	-1	inspired	At this moment	4	3	12	211	VLPFC	158.250712394714	0.49438202247191	n/a	n/a	n/a	n/a	3019.32592592593	0	2236.47064937404	0.553562292246378	-7.95671897612848e-06	26.8862551879124	2700.19139123751	1	5	0	0	1	0	0
276.760303362966	2.51890958309173	punish_vlpfc	279.279212946057	54	4	9	10	0	0	0	0	250	250	250	750	2000	0	BLOCKED	0.25	1	2	-1	scared	At this moment	3	3	12	211	VLPFC	273.341177821159	0	4300.91003990907	-1.10865219939124	0.000279724202968639	24.5398325081614	3221.44069912609	0	2177.25088061829	0.847841377407319	-9.80967242097412e-05	28.2658447834338	2813.43197540354	0	6	0	0	1	0	0
280.27995449841	2.51873221719262	punish_vlpfc	282.798686715603	55	4	9	10	0	0	0	0	250	250	250	750	2000	0	BLOCKED	0.25	-1	4	1	hostile	At this moment	1	3	12	211	VLPFC	89.95632147789	0	14961.7082052044	-11.1505213920324	0.00250412204563521	36.9482063426035	2718.35455680399	0	2059.43112715264	1.01082592788603	-0.000220911925415964	38.4921422304279	2728.1998462721	0	7	0	0	1	0	0
283.80692312932	2.51126027572155	punish_vlpfc	286.318183405042	56	4	9	10	0	0	0	0	250	250	250	750	2000	0	BLOCKED	0.25	1	4	-1	ashamed	At this moment	2	3	12	211	VLPFC	665.739755630493	0	6559.13404754767	-3.48085730398689	0.000808849873363324	40.9525369570576	2859.09488139825	0	1671.52402086115	1.52763352976169	-0.000546587509871141	24.5598485342563	2499.1813989239	0	8	0	0	1	0	0
287.319308251262	6.02132130300998	panas_none	293.340629554272	57	5	10	10	n/a	n/a	n/a	n/a	n/a	n/a	n/a	n/a	2000	0	BLOCKED	n/a	n/a	+	0	inspired	At this moment	5	3	12	211	NONE	n/a	0	-2419.05171377913	4.22515105484315	-0.00096633184204554	39.0693724255365	2140.74406991261	0.173712528823982	1942.61077388601	-0.184895713791473	0.000700190105626025	24.8403619822247	2225.85674418605	4	1	0	1	0	0	1
294.341413773179	6.02155790865419	panas_none	300.362971681833	58	5	10	10	n/a	n/a	n/a	n/a	n/a	n/a	n/a	n/a	2000	0	BLOCKED	n/a	n/a	+	0	strong	At this moment	5	3	12	211	NONE	n/a	0.191011235955056	-9108.93880708386	10.4043969151421	-0.00238947401368038	45.0122459474871	2124.76851851852	0.51652574942352	n/a	n/a	n/a	n/a	1975.88076311606	6	2	0	1	0	0	1
301.372639718175	6.01265328669547	panas_none	307.38529300487	59	5	10	10	n/a	n/a	n/a	n/a	n/a	n/a	n/a	n/a	2000	0	BLOCKED	n/a	n/a	+	0	interested	At this moment	5	3	12	211	NONE	n/a	0	5835.13675277684	-3.10367745533009	0.000655148935830599	24.4704142347121	2242.5418227216	0	3036.93245378992	-0.738191304190662	0.000198354079857891	35.27017837642	2562.86395080707	2	3	0	1	0	0	1
308.386206633925	5.22070894932745	panas_none	313.606915583253	60	5	10	10	n/a	n/a	n/a	n/a	n/a	n/a	n/a	n/a	2000	0	BLOCKED	n/a	n/a	+	0	alert	At this moment	4	3	12	211	NONE	n/a	0.149812734082397	1341.57088292198	1.36599560987787	-0.000305416789466225	22.2144489736924	2844.7268722467	0.252113758647194	n/a	n/a	n/a	n/a	2394.89928057554	3	4	0	1	0	0	1
314.608153266907	2.53506470322606	reward_vlpfc	317.143217970133	61	2	11	10	0	0	0	0	250	250	250	750	2000	0	BLOCKED	0.75	-1	4	1	upset	At this moment	4	3	12	211	VLPFC	390.947913885117	0	15452.2885052111	-11.9478077480614	0.00278751655725434	43.9785569628023	2801.85143570537	0	2046.87325406383	1.28176836380579	-0.000431118054955242	19.2653617708594	2763.96310530361	0	1	1	0	0	0	0
318.150659939289	2.51207270383838	reward_vlpfc	320.662732643127	62	2	11	10	0	0	0	0	250	250	250	750	2000	0	BLOCKED	0.75	1	9	1	excited	At this moment	4	3	12	211	VLPFC	569.91942358017	0	12086.9688364746	-8.7122190918911	0.00200043820142545	30.8143995113439	2721.09488139825	0	2035.10927312837	1.09739532649724	-0.00031989068700386	27.2985706346774	2692.4096848578	0	2	1	0	0	0	0
321.665573320866	2.55006253647804	reward_vlpfc	324.215635857344	63	2	11	10	0	0	0	0	250	250	250	750	2000	0	BLOCKED	0.75	-1	1	1	guilty	At this moment	5	3	12	211	VLPFC	436.393467664719	0	16741.826532003	-13.1499648417617	0.00303512957155676	51.6419854052189	2669.60549313358	0	2222.361591965	0.742582518780847	-0.000191607511090842	24.0171961909801	2689.08455034589	0	3	1	0	0	0	0
325.216736020446	2.51845118188862	reward_vlpfc	327.735187202334	64	2	11	10	0	0	0	0	250	250	250	750	2000	0	BLOCKED	0.75	-1	10	-1	enthusiastic	At this moment	1	3	12	211	VLPFC	480.704654574394	0.395755305867665	n/a	n/a	n/a	n/a	2777.79132231405	0	1989.95968667354	0.788867547724497	-5.4984348781688e-05	25.8977673721408	2613.1237509608	1	4	1	0	0	0	0
328.73597706306	2.51930909752843	reward_vlpfc	331.255286160588	65	2	11	10	0	0	0	0	250	250	250	750	2000	0	BLOCKED	0.75	-1	3	1	upset	At this moment	4	3	12	211	VLPFC	256.074610829353	0.489388264669164	n/a	n/a	n/a	n/a	2467.42542787286	0	1886.79883599274	1.06436705766016	-0.000298441034559543	22.7069695904097	2535.36279784781	1	5	1	0	0	0	0
332.255527350187	2.51903934597965	reward_vlpfc	334.774566696167	66	2	11	10	0	0	0	0	250	250	250	750	2000	0	BLOCKED	0.75	-1	9	-1	jittery	At this moment	3	3	12	211	VLPFC	290.041090369225	0	5585.72278078327	-2.82679608957884	0.000680242038179834	26.8102403331651	2685.28464419476	0	2074.96600355104	0.861288252743412	-0.000276073431519625	32.1536486776319	2569.84550345888	0	6	1	0	0	0	0
335.758240204453	2.51901148939135	reward_vlpfc	338.277251693845	67	2	11	10	0	0	0	0	250	250	250	750	2000	0	BLOCKED	0.75	-1	0	1	scared	At this moment	3	3	12	211	VLPFC	340.984991669655	0	14288.2404292146	-11.2058982319552	0.00259987670029229	35.4698081613373	2358.91885143571	0	1909.39660498685	0.629650594844012	-0.000123853266087915	34.4509740916371	2338.15680245965	0	7	1	0	0	0	0
339.261455537081	2.53504425156115	reward_vlpfc	341.796499788642	68	2	11	10	0	0	0	0	250	250	250	750	2000	0	BLOCKED	0.75	1	10	1	alert	At this moment	4	3	12	211	VLPFC	720.811737060547	0	7635.24470921625	-4.28045932833555	0.000867038007529438	35.6109458132286	2516.72784019975	0	1902.01446316975	1.06078194929188	-0.00032281815270222	26.6964694665164	2524.33973866257	0	8	1	0	0	0	0
342.79732209003	6.02144789230823	panas_none	348.818769982338	69	5	12	10	n/a	n/a	n/a	n/a	n/a	n/a	n/a	n/a	2000	0	BLOCKED	n/a	n/a	+	0	attentive	At this moment	5	3	12	211	NONE	n/a	0.257178526841448	n/a	n/a	n/a	n/a	1850.65210084034	0	1993.86887719132	0.340714962632764	-0.000295135454377328	42.1254943923908	2034.44043043812	4	1	0	1	0	1	1
349.819816900492	6.02151488935948	panas_none	355.841331789851	70	5	12	10	n/a	n/a	n/a	n/a	n/a	n/a	n/a	n/a	2000	0	BLOCKED	n/a	n/a	+	0	active	At this moment	5	3	12	211	NONE	n/a	0	2771.04211901355	-0.464003498162555	7.15458036263343e-05	14.813903732089	2115.86516853933	0.229823212913144	1944.56784818754	0.210455471286993	-0.000106098312757038	35.6312457110271	2002.46007984032	4	2	0	1	0	1	1
356.825281749368	6.02167215633392	panas_none	362.846953905702	71	5	12	10	n/a	n/a	n/a	n/a	n/a	n/a	n/a	n/a	2000	0	BLOCKED	n/a	n/a	+	0	upset	At this moment	3	3	12	211	NONE	n/a	0	4503.48801769021	-2.0865439628112	0.000423251009781637	20.3917505066359	2011.17228464419	0.255956956187548	n/a	n/a	n/a	n/a	1970.29338842975	3	3	0	1	0	1	1
363.847893275738	14.5116509747505	panas_none	378.359544250488	72	5	12	10	n/a	n/a	n/a	n/a	n/a	n/a	n/a	n/a	2000	0	BLOCKED	n/a	n/a	+	0	enthusiastic	At this moment	3	3	12	211	NONE	n/a	0	4540.29157773604	-2.1613685620201	0.000526861568989867	17.5665780199675	2353.30836454432	0.259800153727902	n/a	n/a	n/a	n/a	2094.48701973001	4	4	0	1	0	1	1
379.364810223579	2.51431781256201	reward_rtpj	381.879128036141	73	1	13	10	750	250	250	250	0	0	0	0	2000	0	BLOCKED	0.75	-1	1	1	proud	At this moment	2	3	12	211	RTPJ	419.143473625183	0	9804.74136767067	-6.69266343830463	0.00158560413059228	34.912173195288	2826.9063670412	0	2093.34333981105	0.910454579141636	-0.000249544898827961	20.3976509316353	2651.32667179093	0	1	1	0	0	0	0
382.884636962056	2.51406498658656	reward_rtpj	385.398701948643	74	1	13	10	750	250	250	250	0	0	0	0	2000	0	BLOCKED	0.75	1	4	-1	ashamed	At this moment	1	3	12	211	RTPJ	402.063440561295	0	4679.33479688563	-1.53091485869703	0.000351698689302497	20.6002250375647	3033.70037453184	0	2335.54485747188	0.620696812838388	-0.00010265903079646	28.4808258447267	2773.30745580323	0	2	1	0	0	0	0
386.382721020818	2.51872375440598	reward_rtpj	388.901444775224	75	1	13	10	750	250	250	250	0	0	0	0	2000	0	BLOCKED	0.75	1	2	-1	excited	At this moment	4	3	12	211	RTPJ	306.162006855011	0.868913857677903	n/a	n/a	n/a	n/a	2868.11428571429	0	1975.86235530108	1.30044835654615	-0.000506522222925473	32.8899846477873	2657.32820906995	1	3	1	0	0	0	0
389.885581268668	2.51873962211613	reward_rtpj	392.404320890784	76	1	13	10	750	250	250	250	0	0	0	0	2000	0	BLOCKED	0.75	-1	2	1	jittery	At this moment	3	3	12	211	RTPJ	172.808833003044	0	13461.2660520971	-10.2338643360021	0.00238085251590258	29.0397998944001	2593.75156054931	0.312836279784781	n/a	n/a	n/a	n/a	2612.35346756152	1	4	1	0	0	0	0
393.405074079394	2.51878123080729	reward_rtpj	395.923855310202	77	1	13	10	750	250	250	250	0	0	0	0	2000	0	BLOCKED	0.75	1	7	1	upset	At this moment	5	3	12	211	RTPJ	157.298648238182	0	14913.0468177512	-11.6926740356323	0.00274232089599296	44.3869368660927	2598.22971285893	0	2175.83593260223	0.67415484662857	-0.000153143816877696	21.8539540085958	2616.2567255957	0	5	1	0	0	0	0
396.924646934032	2.51871917033191	reward_rtpj	399.443366104364	78	1	13	10	750	250	250	250	0	0	0	0	2000	0	BLOCKED	0.75	-1	0	1	nervous	At this moment	4	3	12	211	RTPJ	189.612767219543	0	9424.99905265081	-6.32886997638161	0.00144675040798977	36.2195119564345	2591.49438202247	0	2212.14252609979	0.58022975137048	-0.000141624331718551	21.6320676839604	2583.20830130669	0	6	1	0	0	0	0
400.427445121527	2.51882248687747	reward_rtpj	402.946267608404	79	1	13	10	750	250	250	250	0	0	0	0	2000	0	BLOCKED	0.75	-1	2	1	proud	At this moment	1	3	12	211	RTPJ	206.918474674225	0	13981.4693716969	-10.7414426304156	0.00246812646780022	33.6689744212913	2441.30586766542	0.30053804765565	n/a	n/a	n/a	n/a	2365.72857142857	1	7	1	0	0	0	0
403.946848014951	2.51888701570033	reward_rtpj	406.465735030651	80	1	13	10	750	250	250	250	0	0	0	0	2000	0	BLOCKED	0.75	1	8	1	scared	At this moment	3	3	12	211	RTPJ	373.339308977127	1	n/a	n/a	n/a	n/a	n/a	1	n/a	n/a	n/a	n/a	n/a	0	8	1	0	0	0	0
407.466653949022	6.02145423936844	panas_none	413.488108188391	81	5	14	10	n/a	n/a	n/a	n/a	n/a	n/a	n/a	n/a	2000	0	BLOCKED	n/a	n/a	+	0	alert	At this moment	5	3	12	211	NONE	n/a	0.404494382022472	n/a	n/a	n/a	n/a	1809.49895178197	0	1897.18753470798	0.287158642444183	-0.000175334157994438	70.9492137469903	1995.29362029208	4	1	0	1	0	1	0
414.48878168571	6.02169824993609	panas_none	420.510479935646	82	5	14	10	n/a	n/a	n/a	n/a	n/a	n/a	n/a	n/a	2000	0	BLOCKED	n/a	n/a	+	0	guilty	At this moment	2	3	12	211	NONE	n/a	0	8597.39220173609	-6.1555354833332	0.00143917558546741	32.2500589853195	2093.84644194757	0.285165257494235	n/a	n/a	n/a	n/a	2185.47741935484	4	2	0	1	0	1	0
421.500086567402	6.03295235478879	panas_none	427.533038922191	83	5	14	10	n/a	n/a	n/a	n/a	n/a	n/a	n/a	n/a	2000	0	BLOCKED	n/a	n/a	+	0	hostile	At this moment	1	3	12	211	NONE	n/a	0	5092.42679490797	-3.22361933056816	0.000776013353710191	18.8435203589653	1786.22721598002	0	2255.5955833274	-0.73046925511073	0.000202131416332343	35.9147792482621	1806.25134511914	3	3	0	1	0	1	0
428.516994876146	8.80710507941245	panas_none	437.324099955559	84	5	14	10	n/a	n/a	n/a	n/a	n/a	n/a	n/a	n/a	2000	0	BLOCKED	n/a	n/a	+	0	interested	At this moment	2	3	12	211	NONE	n/a	0	2340.0473076351	-0.0875663713543589	7.62331589111109e-05	20.6917465273711	2496.60424469413	0.307455803228286	n/a	n/a	n/a	n/a	2125.63817980022	1	4	0	1	0	1	0
438.308268184543	2.51903158843515	reward_rtpj	440.827299772978	85	1	15	10	750	250	250	250	0	0	0	0	2000	0	BLOCKED	0.75	1	8	1	ashamed	At this moment	2	3	12	211	RTPJ	418.979154348373	0	7624.58406488679	-4.95058838016287	0.00120428826189643	32.5522226836172	2603.1897627965	0	1770.77993779917	0.562829548771276	-7.7541455419876e-06	22.5689798019001	2242.25903151422	0	1	1	0	0	0	0
441.827709160686	2.51871846497062	reward_rtpj	444.346427625656	86	1	15	10	750	250	250	250	0	0	0	0	2000	0	BLOCKED	0.75	1	6	1	jittery	At this moment	2	3	12	211	RTPJ	640.066108345985	0	12528.9629561136	-9.50130936193004	0.00225675514874869	30.2089109659494	2648.48439450687	0	1957.99468748368	0.672528741116093	-9.28113326623449e-05	21.2000687245415	2449.79784780938	0	2	1	0	0	0	0
445.330536262631	2.51876783120633	reward_rtpj	447.849304093838	87	1	15	10	750	250	250	250	0	0	0	0	2000	0	BLOCKED	0.75	-1	2	1	upset	At this moment	3	3	12	211	RTPJ	540.033773541451	0	13011.8492328441	-9.57681748780606	0.00223638050366624	39.7391209604227	2883.9038701623	0	2261.89287146765	0.740101808470019	-0.000160603668709896	21.1675667640825	2752.1237509608	0	3	1	0	0	0	0
448.849992753744	2.51906826055051	reward_rtpj	451.369061014295	88	1	15	10	750	250	250	250	0	0	0	0	2000	0	BLOCKED	0.75	1	7	1	scared	At this moment	5	3	12	211	RTPJ	474.308545708656	0	15279.0220334255	-11.7264968126227	0.00270860854699494	47.8247520509136	2742.29088639201	0	1878.15290979363	1.09679442491719	-0.000280313345143667	21.8075537543154	2567.90161414297	0	4	1	0	0	0	0
452.3699460814	2.51835879647734	reward_rtpj	454.888304877877	89	1	15	10	750	250	250	250	0	0	0	0	2000	0	BLOCKED	0.75	-1	7	-1	determined	At this moment	3	3	12	211	RTPJ	772.934082388878	0.423220973782772	n/a	n/a	n/a	n/a	2888.38528138528	0	2063.86630982783	0.798802948146204	-0.000152596920983728	22.7452822399138	2611.31744811683	1	5	1	0	0	0	0
455.872534814835	2.51857001352312	reward_rtpj	458.391104828358	90	1	15	10	750	250	250	250	0	0	0	0	2000	0	BLOCKED	0.75	-1	4	1	strong	At this moment	3	3	12	211	RTPJ	424.243717074394	0	14546.4188719731	-10.9626781234474	0.00247879212846478	39.4786232961701	2588.5368289638	0	2024.00633010949	0.722833420914195	-8.69825581258132e-05	21.6317119122894	2564.19907763259	0	6	1	0	0	0	0
459.37518031919	2.53540462565422	reward_rtpj	461.910584944844	91	1	15	10	750	250	250	250	0	0	0	0	2000	0	BLOCKED	0.75	-1	4	1	enthusiastic	At this moment	3	3	12	211	RTPJ	1157.03065979481	0	10356.6599161416	-7.09761076779271	0.00162448135834043	46.071957183085	2701.37578027466	0	2059.25745699607	0.675870817931181	-0.000106666847374149	23.352627277353	2541.44888547271	0	7	1	0	0	0	0
462.911600127339	2.51861303281788	reward_rtpj	465.430213160157	92	1	15	10	750	250	250	250	0	0	0	0	2000	0	BLOCKED	0.75	1	4	-1	inspired	At this moment	2	3	12	211	RTPJ	823.260904788971	0	2863.77468450184	0.389290533074088	-0.000190904056581357	19.8492999071772	2829.16853932584	0	1442.90814557181	1.88050447497894	-0.000609579853339831	23.9473338599166	2531.74481168332	0	8	1	0	0	0	0
466.431058734298	6.02154415655133	panas_none	472.452602890849	93	5	16	10	n/a	n/a	n/a	n/a	n/a	n/a	n/a	n/a	2000	0	BLOCKED	n/a	n/a	+	0	nervous	At this moment	2	3	12	211	NONE	n/a	0.379525593008739	n/a	n/a	n/a	n/a	1674.43661971831	0	1733.94534177544	0.243391657222734	-0.000237741400296251	48.4149883652524	1743.58339738663	4	1	0	1	0	1	0
473.436563076258	6.02185727989672	panas_none	479.458420356154	94	5	16	10	n/a	n/a	n/a	n/a	n/a	n/a	n/a	n/a	2000	0	BLOCKED	n/a	n/a	+	0	ashamed	At this moment	2	3	12	211	NONE	n/a	0	9406.96131662861	-6.73155946507604	0.00155107388791885	30.9802042622729	2193.19101123596	0	2445.79164675023	0.194561573819887	-8.90880746583176e-05	31.4853652131548	2533.91621829362	3	2	0	1	0	1	0
480.464559760213	6.01634941184517	panas_none	486.480909172058	95	5	16	10	n/a	n/a	n/a	n/a	n/a	n/a	n/a	n/a	2000	0	BLOCKED	n/a	n/a	+	0	guilty	At this moment	2	3	12	211	NONE	n/a	0.460674157303371	n/a	n/a	n/a	n/a	1979.61342592593	0	2744.12904065524	-0.49985641162993	0.000204150883070306	25.0515691874945	2494.10914681015	3	3	0	1	0	1	0
487.481463837624	12.0265576565266	panas_none	499.50802149415	96	5	16	10	n/a	n/a	n/a	n/a	n/a	n/a	n/a	n/a	2000	0	BLOCKED	n/a	n/a	+	0	afraid	At this moment	2	3	12	211	NONE	n/a	0	3896.38654418674	-1.45493550178457	0.000405412060504132	24.3058341056044	2650.60424469413	0.270561106840892	n/a	n/a	n/a	n/a	2130.90410958904	2	4	0	1	0	1	0
