onset	duration	trial_type	offset	trial	block	blockCntr	frequency	amplitude_1	amplitude_2	amplitude_3	amplitude_4	amplitude_5	amplitude_6	amplitude_7	amplitude_8	transition	sham	mode	rewardFraction	guess	outcome	correct	word	when	answer	runNr	scanNr	subjectNr	target	reactionTime	outcomeEyeClosed	outcomePupilArea	outcomeDilation	guessEyeClosed	guessPupilArea	guessDilation	nrBlinks	trialInBlock	isReward	isPanas	isPunish	beforePanasReward	beforePanasVLPFC
20.3909750654697	2.51351737320423	reward_vlpfc	22.904492438674	1	2	1	10	0	0	0	0	250	250	250	750	2000	0	BLOCKED	0.75	1	6	1	n/a	n/a	n/a	3	11	211	VLPFC	752.167797446251	0	2706.14981273408	-0.29125	0	2310.20368946964	0.592307692307692	0	1	1	0	0	0	0
23.9052815941572	2.53547655928135	reward_vlpfc	26.4407581534386	2	2	1	10	0	0	0	0	250	250	250	750	2000	0	BLOCKED	0.75	-1	10	-1	n/a	n/a	n/a	3	11	211	VLPFC	224.31586253643	0	3004.40574282147	-0.15125	0	2636.3235972329	0.765384615384615	0	2	1	0	0	0	0
27.4270540698767	2.51657878887653	reward_vlpfc	29.9436328587532	3	2	1	10	0	0	0	0	250	250	250	750	2000	0	BLOCKED	0.75	-1	4	1	n/a	n/a	n/a	3	11	211	VLPFC	288.316091060638	0	2633.94756554307	-0.33	0	2557.89239046887	0.813846153846154	0	3	1	0	0	0	0
30.9443109400272	2.51868249809742	reward_vlpfc	33.4629934381247	4	2	1	10	0	0	0	0	250	250	250	750	2000	0	BLOCKED	0.75	1	8	1	n/a	n/a	n/a	3	11	211	VLPFC	241.023532509804	0	2625.68414481898	-0.545	0	2660.83704842429	0.634615384615385	0	4	1	0	0	0	0
34.4638097451925	2.51870894443989	reward_vlpfc	36.9825186896324	5	2	1	10	0	0	0	0	250	250	250	750	2000	0	BLOCKED	0.75	1	6	1	n/a	n/a	n/a	3	11	211	VLPFC	257.39445400238	0	2545.42446941323	-0.23875	0	2477.82090699462	0.597692307692308	0	5	1	0	0	0	0
37.9833053767681	2.51880238771438	reward_vlpfc	40.5021077644825	6	2	1	10	0	0	0	0	250	250	250	750	2000	0	BLOCKED	0.75	-1	0	1	n/a	n/a	n/a	3	11	211	VLPFC	240.680084228516	0	2460.56554307116	-0.46125	0	2387.13451191391	0.712307692307692	0	6	1	0	0	0	0
41.5059868975878	2.51585627770424	reward_vlpfc	44.021843175292	7	2	1	10	0	0	0	0	250	250	250	750	2000	0	BLOCKED	0.75	1	7	1	n/a	n/a	n/a	3	11	211	VLPFC	369.935150146484	0	2606.94382022472	-0.4475	0	2558.01998462721	0.587692307692308	0	7	1	0	0	0	0
45.0223756260872	2.51878793048859	reward_vlpfc	47.5411635565758	8	2	1	10	0	0	0	0	250	250	250	750	2000	0	BLOCKED	0.75	1	2	-1	n/a	n/a	n/a	3	11	211	VLPFC	122.7968968153	0	2843.08739076155	0.0975	0	2459.84627209839	0.551538461538462	0	8	1	0	0	0	0
48.5653209532499	6.04814024817944	panas_none	54.6134612014294	9	5	2	n/a	n/a	n/a	n/a	n/a	n/a	n/a	n/a	n/a	n/a	n/a	n/a	n/a	n/a	n/a	n/a	interested	At this moment	5	3	11	211	NONE	n/a	0.219725343320849	1519.8768	-0.0400641025641026	0	1953.24596464258	-0.510769230769231	2	1	0	1	0	1	1
55.6143113596439	6.02160868537426	panas_none	61.6359200450182	10	5	2	n/a	n/a	n/a	n/a	n/a	n/a	n/a	n/a	n/a	n/a	n/a	n/a	n/a	n/a	n/a	n/a	alert	At this moment	5	3	11	211	NONE	n/a	0	2123.01997503121	-0.19375	0	2496.2090699462	-0.0938461538461538	0	2	0	1	0	1	1
62.63658155334	6.03828638315201	panas_none	68.674867936492	11	5	2	n/a	n/a	n/a	n/a	n/a	n/a	n/a	n/a	n/a	n/a	n/a	n/a	n/a	n/a	n/a	n/a	determined	At this moment	5	3	11	211	NONE	n/a	0	1965.56554307116	-0.2425	0.11837048424289	2397.10897994769	-0.184118673647469	2	3	0	1	0	1	1
69.6815711741448	8.15073786735535	panas_none	77.8323090415001	12	5	2	n/a	n/a	n/a	n/a	n/a	n/a	n/a	n/a	n/a	n/a	n/a	n/a	n/a	n/a	n/a	n/a	n/a	n/a	n/a	3	11	211	NONE	n/a	0	3025.48689138577	0.22	0	2562.20061491161	0.47	0	4	0	1	0	1	1
78.8164994853735	2.51868531918525	punish_vlpfc	81.3351848045588	13	4	3	10	0	0	0	0	250	250	250	750	2000	0	BLOCKED	0.25	-1	10	-1	n/a	n/a	n/a	3	11	211	VLPFC	306.501223802567	0	2943.51310861423	-0.13125	0	2520.47194465796	0.841538461538462	0	1	0	0	1	0	0
82.336044483304	2.53531470835209	punish_vlpfc	84.8713591916561	14	4	3	10	0	0	0	0	250	250	250	750	2000	0	BLOCKED	0.25	-1	7	-1	n/a	n/a	n/a	3	11	211	VLPFC	756.642499566078	0.416978776529338	2992.3147751606	-0.00643776824034335	0	2567.54342813221	0.450769230769231	1	2	0	0	1	0	0
85.8768578916788	2.51408367526531	punish_vlpfc	88.3909415669441	15	4	3	10	0	0	0	0	250	250	250	750	2000	0	BLOCKED	0.25	-1	7	-1	n/a	n/a	n/a	3	11	211	VLPFC	352.652010321617	0	3210.93133583021	0.325	0	2838.26056879324	0.356153846153846	0	3	0	0	1	0	0
89.3917857304811	2.51867015671731	punish_vlpfc	91.9104558871985	16	4	3	10	0	0	0	0	250	250	250	750	2000	0	BLOCKED	0.25	-1	2	1	n/a	n/a	n/a	3	11	211	VLPFC	306.087957382202	0	2698.65543071161	-0.5825	0	2704.28209069946	0.631538461538461	0	4	0	0	1	0	0
92.899062851429	2.53083859586717	punish_vlpfc	95.4299014472961	17	4	3	10	0	0	0	0	250	250	250	750	2000	0	BLOCKED	0.25	-1	10	-1	n/a	n/a	n/a	3	11	211	VLPFC	218.322441577911	0	2916.22097378277	0.01125	0	2733.46041506533	0.608461538461538	0	5	0	0	1	0	0
96.430784751296	2.51864617884159	punish_vlpfc	98.9494309301376	18	4	3	10	0	0	0	0	250	250	250	750	2000	0	BLOCKED	0.25	1	1	-1	n/a	n/a	n/a	3	11	211	VLPFC	557.695976257324	0	2907.02496878901	-0.07875	0	2652.91083781706	0.554615384615385	0	6	0	0	1	0	0
99.9504478758573	2.51890499901772	punish_vlpfc	102.469352874875	19	4	3	10	0	0	0	0	250	250	250	750	2000	0	BLOCKED	0.25	1	1	-1	n/a	n/a	n/a	3	11	211	VLPFC	390.641842842102	0	2670.16729088639	-0.32125	0.260568793235972	2413.76819126819	1.340625	1	7	0	0	1	0	0
103.469798229456	2.51871564412117	punish_vlpfc	105.988513873577	20	4	3	10	0	0	0	0	250	250	250	750	2000	0	BLOCKED	0.25	1	9	1	n/a	n/a	n/a	3	11	211	VLPFC	273.379260420799	0	2801.44069912609	-0.42625	0	2674.8001537279	0.625384615384615	0	8	0	0	1	0	0
106.989333001494	6.02160057520867	panas_none	113.010933576703	21	5	4	n/a	n/a	n/a	n/a	n/a	n/a	n/a	n/a	n/a	n/a	n/a	n/a	n/a	n/a	n/a	n/a	guilty	At this moment	4	3	11	211	NONE	n/a	0.374531835205993	2705.88822355289	1.32865731462926	0	2549.74019984627	0.465384615384615	3	1	0	1	0	0	1
114.011778798103	6.02139006316662	panas_none	120.03316886127	22	5	4	n/a	n/a	n/a	n/a	n/a	n/a	n/a	n/a	n/a	n/a	n/a	n/a	n/a	n/a	n/a	n/a	inspired	At this moment	5	3	11	211	NONE	n/a	0.205992509363296	2064.27987421384	-0.388976377952756	0	2472.08070714835	-0.0638461538461538	1	2	0	1	0	0	1
121.034355768204	6.0213643220663	panas_none	127.05572009027	23	5	4	n/a	n/a	n/a	n/a	n/a	n/a	n/a	n/a	n/a	n/a	n/a	n/a	n/a	n/a	n/a	n/a	hostile	At this moment	1	3	11	211	NONE	n/a	0.119850187265918	2190.79007092199	-0.663352272727273	0	2594.59415833974	0.0315384615384615	1	3	0	1	0	0	1
128.05633364284	5.20428372502329	panas_none	133.260617367864	24	5	4	n/a	n/a	n/a	n/a	n/a	n/a	n/a	n/a	n/a	n/a	n/a	n/a	n/a	n/a	n/a	n/a	n/a	n/a	n/a	3	11	211	NONE	n/a	0	2655.48439450687	0.13625	0.270561106840892	2231.02318229716	0.857444561774023	1	4	0	1	0	0	1
134.261422743678	2.51876642096045	punish_rtpj	136.780189164639	25	3	5	10	750	250	250	250	0	0	0	0	2000	0	BLOCKED	0.25	1	10	1	n/a	n/a	n/a	3	11	211	RTPJ	315.579332947731	0	2766.70287141074	-0.26875	0	2573.28516525749	0.718461538461538	0	1	0	0	1	0	0
137.764348930955	2.51867615103723	punish_rtpj	140.283025081992	26	3	5	10	750	250	250	250	0	0	0	0	2000	0	BLOCKED	0.25	1	3	-1	n/a	n/a	n/a	3	11	211	RTPJ	306.71032512188	0	2950.12359550562	0.2125	0	2531.8954650269	0.671538461538462	0	2	0	0	1	0	0
141.283764165997	2.51883870720863	punish_rtpj	143.802602873206	27	3	5	10	750	250	250	250	0	0	0	0	2000	0	BLOCKED	0.25	1	4	-1	n/a	n/a	n/a	3	11	211	RTPJ	306.242403268814	0	2963.07615480649	0.0575	0	2604.23597232898	0.533076923076923	0	3	0	0	1	0	0
144.803432227015	2.51862678480148	punish_rtpj	147.322059011817	28	3	5	10	750	250	250	250	0	0	0	0	2000	0	BLOCKED	0.25	1	2	-1	n/a	n/a	n/a	3	11	211	RTPJ	27.7918138504028	0	3039.84269662921	0.27625	0	2651.63873943121	0.441538461538462	0	4	0	0	1	0	0
148.306246634722	2.51875654768943	punish_rtpj	150.825003182411	29	3	5	10	750	250	250	250	0	0	0	0	2000	0	BLOCKED	0.25	1	8	1	n/a	n/a	n/a	3	11	211	RTPJ	173.170617341995	0	3006.37078651685	-0.325	0	2888.571867794	0.523846153846154	0	5	0	0	1	0	0
151.816749843001	2.51099228727819	punish_rtpj	154.32774213028	30	3	5	10	750	250	250	250	0	0	0	0	2000	0	BLOCKED	0.25	1	0	-1	n/a	n/a	n/a	3	11	211	RTPJ	766.682193636894	0	2970.29712858926	0.05875	0	2616.31898539585	0.616923076923077	0	6	0	0	1	0	0
155.332952742696	2.51432909619808	punish_rtpj	157.847281838894	31	3	5	10	750	250	250	250	0	0	0	0	2000	0	BLOCKED	0.25	-1	7	-1	n/a	n/a	n/a	3	11	211	RTPJ	452.30598783493	0.531835205992509	2755.89866666667	1.26075268817204	0	2715.84473481937	0.396153846153846	1	7	0	0	1	0	0
158.831605924487	2.51853193092344	punish_rtpj	161.350137855411	32	3	5	10	750	250	250	250	0	0	0	0	2000	0	BLOCKED	0.25	-1	9	-1	n/a	n/a	n/a	3	11	211	RTPJ	553.747025132179	0	2947.65917602996	-0.05	0	2800.06994619523	0.282307692307692	0	8	0	0	1	0	0
162.351210161805	6.0212631213665	panas_none	168.372473283172	33	5	6	n/a	n/a	n/a	n/a	n/a	n/a	n/a	n/a	n/a	n/a	n/a	n/a	n/a	n/a	n/a	n/a	jittery	At this moment	2	3	11	211	NONE	n/a	0	2047.46441947566	-0.01625	0	2271.91621829362	-0.199230769230769	2	1	0	1	0	0	0
169.373287121773	6.02160057520868	panas_none	175.394887696981	34	5	6	n/a	n/a	n/a	n/a	n/a	n/a	n/a	n/a	n/a	n/a	n/a	n/a	n/a	n/a	n/a	n/a	strong	At this moment	4	3	11	211	NONE	n/a	0	2289.44943820225	-0.26	0	2503.7617217525	0.0684615384615385	2	2	0	1	0	0	0
176.395559431195	6.03835831689833	panas_none	182.433917748094	35	5	6	n/a	n/a	n/a	n/a	n/a	n/a	n/a	n/a	n/a	n/a	n/a	n/a	n/a	n/a	n/a	n/a	proud	At this moment	1	3	11	211	NONE	n/a	0	2024.46691635456	-0.01625	0	2150.85011529593	0.0638461538461538	3	3	0	1	0	0	0
183.418054594278	13.2774223599434	panas_none	196.695476954222	36	5	6	n/a	n/a	n/a	n/a	n/a	n/a	n/a	n/a	n/a	n/a	n/a	n/a	n/a	n/a	n/a	n/a	n/a	n/a	n/a	3	11	211	NONE	n/a	0	2930.47690387016	0.295	0.251345119139124	2612.42710472279	0.891975308641975	1	4	0	1	0	0	0
197.679525646448	2.53570681774616	punish_rtpj	200.215232464194	37	3	7	10	750	250	250	250	0	0	0	0	2000	0	BLOCKED	0.25	1	1	-1	n/a	n/a	n/a	3	11	211	RTPJ	491.139631390572	0	3091.1847690387	0.24625	0	2628.18985395849	0.609230769230769	0	1	0	0	1	0	0
201.203376090407	2.51452127218246	punish_rtpj	203.71789736259	38	3	7	10	750	250	250	250	0	0	0	0	2000	0	BLOCKED	0.25	1	0	-1	n/a	n/a	n/a	3	11	211	RTPJ	249.222921729088	0	2979.86017478152	0.1125	0	2639.09607993851	0.512307692307692	0	2	0	0	1	0	0
204.718744699717	2.51870153951643	punish_rtpj	207.237446239233	39	3	7	10	750	250	250	250	0	0	0	0	2000	0	BLOCKED	0.25	-1	10	-1	n/a	n/a	n/a	3	11	211	RTPJ	139.053570628166	0	3019.7315855181	-0.005	0	2658.51037663336	0.539230769230769	0	3	0	0	1	0	0
208.221414182305	2.51876113152505	punish_rtpj	210.74017531383	40	3	7	10	750	250	250	250	0	0	0	0	2000	0	BLOCKED	0.25	-1	2	1	n/a	n/a	n/a	3	11	211	RTPJ	72.7888394594193	0	2612.18102372035	-0.44	0	2752.95003843198	0.490769230769231	0	4	0	0	1	0	0
211.724217658877	2.51877770459652	punish_rtpj	214.242995363474	41	3	7	10	750	250	250	250	0	0	0	0	2000	0	BLOCKED	0.25	-1	8	-1	n/a	n/a	n/a	3	11	211	RTPJ	241.258727669716	0.374531835205993	2715.41317365269	0.094188376753507	0	2507.10760953113	0.498461538461538	1	5	0	0	1	0	0
215.227248573065	2.5353482068777	punish_rtpj	217.762596779942	42	3	7	10	750	250	250	250	0	0	0	0	2000	0	BLOCKED	0.25	-1	8	-1	n/a	n/a	n/a	3	11	211	RTPJ	141.324067592621	0	2774.38826466916	0.12875	0.296694850115296	2459.37923497268	1.00985761226725	1	6	0	0	1	0	0
218.746784050345	2.51859399139883	punish_rtpj	221.265378041744	43	3	7	10	750	250	250	250	0	0	0	0	2000	0	BLOCKED	0.25	1	9	1	n/a	n/a	n/a	3	11	211	RTPJ	306.230767011642	0	2667.31960049938	-0.525	0	2732.45042275173	0.560769230769231	0	7	0	0	1	0	0
222.266211274385	2.53537817931175	punish_rtpj	224.801589453697	44	3	7	10	750	250	250	250	0	0	0	0	2000	0	BLOCKED	0.25	-1	10	-1	n/a	n/a	n/a	3	11	211	RTPJ	883.975806236267	0.506866416978777	2972.98227848101	-0.355329949238579	0	2550.71329746349	0.633846153846154	1	8	0	0	1	0	0
225.802469231606	6.02159916472436	panas_none	231.82406839633	45	5	8	n/a	n/a	n/a	n/a	n/a	n/a	n/a	n/a	n/a	n/a	n/a	n/a	n/a	n/a	n/a	n/a	alert	At this moment	5	3	11	211	NONE	n/a	0.445692883895131	1684.63063063063	1.2262443438914	0.0153727901614143	2192.61904761905	-0.52265625	4	1	0	1	0	0	0
232.808035634041	6.03833469152451	panas_none	238.846370325565	46	5	8	n/a	n/a	n/a	n/a	n/a	n/a	n/a	n/a	n/a	n/a	n/a	n/a	n/a	n/a	n/a	n/a	jittery	At this moment	2	3	11	211	NONE	n/a	0	2304.10611735331	0.01625	0	2732.21598770177	-0.0569230769230769	2	2	0	1	0	0	0
239.847125629783	6.03813017404079	panas_none	245.885255803823	47	5	8	n/a	n/a	n/a	n/a	n/a	n/a	n/a	n/a	n/a	n/a	n/a	n/a	n/a	n/a	n/a	n/a	scared	At this moment	2	3	11	211	NONE	n/a	0	2082.37578027466	-0.0375	0	2256.67794004612	-0.116923076923077	2	3	0	1	0	0	0
246.88652275455	11.3088207343817	panas_none	258.195343488932	48	5	8	n/a	n/a	n/a	n/a	n/a	n/a	n/a	n/a	n/a	n/a	n/a	n/a	n/a	n/a	n/a	n/a	n/a	n/a	n/a	3	11	211	NONE	n/a	0	2732.74656679151	-0.08125	0.268255188316679	2453.56827731092	1.19368421052632	1	4	0	1	0	0	0
259.179575188875	2.51863383722304	punish_vlpfc	261.698209026098	49	4	9	10	0	0	0	0	250	250	250	750	2000	0	BLOCKED	0.25	1	2	-1	n/a	n/a	n/a	3	11	211	VLPFC	574.297156214714	0	2626.21722846442	0.0325	0	2208.95003843198	0.716153846153846	0	1	0	0	1	0	0
262.682373023748	2.5187135283947	punish_vlpfc	265.201086552143	50	4	9	10	0	0	0	0	250	250	250	750	2000	0	BLOCKED	0.25	1	2	-1	n/a	n/a	n/a	3	11	211	VLPFC	240.210751771927	0	2749.32833957553	0.15375	0.284396617986165	2433.69280343716	0.895586652314316	2	2	0	0	1	0	0
266.201907090545	2.51874138522146	punish_vlpfc	268.720648475766	51	4	9	10	0	0	0	0	250	250	250	750	2000	0	BLOCKED	0.25	1	10	1	n/a	n/a	n/a	3	11	211	VLPFC	280.991190552711	0	2711.30836454432	-0.2775	0.302075326671791	2725.43502202643	0.951434878587196	1	3	0	0	1	0	0
269.726651769876	2.51359107005595	punish_vlpfc	272.240242839932	52	4	9	10	0	0	0	0	250	250	250	750	2000	0	BLOCKED	0.25	1	4	-1	n/a	n/a	n/a	3	11	211	VLPFC	267.519128441811	0	2893.72284644195	-0.085	0	2657.75403535742	0.458461538461538	0	4	0	0	1	0	0
273.224254154682	2.5353478542566	punish_vlpfc	275.759602008939	53	4	9	10	0	0	0	0	250	250	250	750	2000	0	BLOCKED	0.25	1	0	-1	n/a	n/a	n/a	3	11	211	VLPFC	158.250712394714	0.489388264669164	3027.195599022	0.469287469287469	0	2695.96464258263	0.55	1	5	0	0	1	0	0
276.760303362966	2.51890958309173	punish_vlpfc	279.279212946057	54	4	9	10	0	0	0	0	250	250	250	750	2000	0	BLOCKED	0.25	1	2	-1	n/a	n/a	n/a	3	11	211	VLPFC	273.341177821159	0	3220.68664169788	0.06	0	2808.27209838586	0.568461538461538	0	6	0	0	1	0	0
280.27995449841	2.51873221719262	punish_vlpfc	282.798686715603	55	4	9	10	0	0	0	0	250	250	250	750	2000	0	BLOCKED	0.25	-1	4	1	n/a	n/a	n/a	3	11	211	VLPFC	89.95632147789	0	2722.22846441948	-0.48625	0	2723.73405073021	0.551538461538462	0	7	0	0	1	0	0
283.80692312932	2.51126027572155	punish_vlpfc	286.318183405042	56	4	9	10	0	0	0	0	250	250	250	750	2000	0	BLOCKED	0.25	1	4	-1	n/a	n/a	n/a	3	11	211	VLPFC	665.739755630493	0	2858.46941323346	0.0725	0	2494.7425057648	0.540769230769231	0	8	0	0	1	0	0
287.319308251262	6.02132130300998	panas_none	293.340629554272	57	5	10	n/a	n/a	n/a	n/a	n/a	n/a	n/a	n/a	n/a	n/a	n/a	n/a	n/a	n/a	n/a	n/a	inspired	At this moment	5	3	11	211	NONE	n/a	0	2138.37328339576	0.30875	0.163720215219062	2227.36213235294	-0.0579576816927323	4	1	0	1	0	0	1
294.341413773179	6.02155790865419	panas_none	300.362971681833	58	5	10	n/a	n/a	n/a	n/a	n/a	n/a	n/a	n/a	n/a	n/a	n/a	n/a	n/a	n/a	n/a	n/a	strong	At this moment	5	3	11	211	NONE	n/a	0.202247191011236	2126.10954616588	0.594043887147335	0.517294388931591	1980.41082802548	0.872408293460925	6	2	0	1	0	0	1
301.372639718175	6.01265328669547	panas_none	307.38529300487	59	5	10	n/a	n/a	n/a	n/a	n/a	n/a	n/a	n/a	n/a	n/a	n/a	n/a	n/a	n/a	n/a	n/a	interested	At this moment	5	3	11	211	NONE	n/a	0	2244.99625468165	-0.29375	0	2564.4381245196	-0.190769230769231	2	3	0	1	0	0	1
308.386206633925	5.22070894932745	panas_none	313.606915583253	60	5	10	n/a	n/a	n/a	n/a	n/a	n/a	n/a	n/a	n/a	n/a	n/a	n/a	n/a	n/a	n/a	n/a	n/a	n/a	n/a	3	11	211	NONE	n/a	0.133583021223471	2843.97262247839	0.167388167388167	0.249039200614912	2389.21289662231	1.13641025641026	3	4	0	1	0	0	1
314.608153266907	2.53506470322606	reward_vlpfc	317.143217970133	61	2	11	10	0	0	0	0	250	250	250	750	2000	0	BLOCKED	0.75	-1	4	1	n/a	n/a	n/a	3	11	211	VLPFC	390.947913885117	0	2803.10736579276	-0.16	0	2759.52805534204	0.562307692307692	0	1	1	0	0	0	0
318.150659939289	2.51207270383838	reward_vlpfc	320.662732643127	62	2	11	10	0	0	0	0	250	250	250	750	2000	0	BLOCKED	0.75	1	9	1	n/a	n/a	n/a	3	11	211	VLPFC	569.91942358017	0	2723.31835205993	-0.2575	0	2688.47271329746	0.461538461538462	0	2	1	0	0	0	0
321.665573320866	2.55006253647804	reward_vlpfc	324.215635857344	63	2	11	10	0	0	0	0	250	250	250	750	2000	0	BLOCKED	0.75	-1	1	1	n/a	n/a	n/a	3	11	211	VLPFC	436.393467664719	0	2671.19101123596	-0.2075	0	2685.86395080707	0.355384615384615	0	3	1	0	0	0	0
325.216736020446	2.51845118188862	reward_vlpfc	327.735187202334	64	2	11	10	0	0	0	0	250	250	250	750	2000	0	BLOCKED	0.75	-1	10	-1	n/a	n/a	n/a	3	11	211	VLPFC	480.704654574394	0.392009987515606	2785.45379876797	0.707216494845361	0	2607.66256725596	0.634615384615385	1	4	1	0	0	0	0
328.73597706306	2.51930909752843	reward_vlpfc	331.255286160588	65	2	11	10	0	0	0	0	250	250	250	750	2000	0	BLOCKED	0.75	-1	3	1	n/a	n/a	n/a	3	11	211	VLPFC	256.074610829353	0.484394506866417	2478.16949152542	1.13868613138686	0	2530.94773251345	0.496923076923077	1	5	1	0	0	0	0
332.255527350187	2.51903934597965	reward_vlpfc	334.774566696167	66	2	11	10	0	0	0	0	250	250	250	750	2000	0	BLOCKED	0.75	-1	9	-1	n/a	n/a	n/a	3	11	211	VLPFC	290.041090369225	0	2685.19101123596	0.00125	0	2567.4665641814	0.290769230769231	0	6	1	0	0	0	0
335.758240204453	2.51901148939135	reward_vlpfc	338.277251693845	67	2	11	10	0	0	0	0	250	250	250	750	2000	0	BLOCKED	0.75	-1	0	1	n/a	n/a	n/a	3	11	211	VLPFC	340.984991669655	0	2360.98751560549	-0.18125	0	2334.79938508839	0.379230769230769	0	7	1	0	0	0	0
339.261455537081	2.53504425156115	reward_vlpfc	341.796499788642	68	2	11	10	0	0	0	0	250	250	250	750	2000	0	BLOCKED	0.75	1	10	1	n/a	n/a	n/a	3	11	211	VLPFC	720.811737060547	0	2521.37453183521	-0.6075	0	2519.8954650269	0.563076923076923	0	8	1	0	0	0	0
342.79732209003	6.02144789230823	panas_none	348.818769982338	69	5	12	n/a	n/a	n/a	n/a	n/a	n/a	n/a	n/a	n/a	n/a	n/a	n/a	n/a	n/a	n/a	n/a	attentive	At this moment	5	3	11	211	NONE	n/a	0.238451935081149	1852.47540983607	0.0394088669950739	0	2037.2567255957	-0.299230769230769	4	1	0	1	0	1	1
349.819816900492	6.02151488935948	panas_none	355.841331789851	70	5	12	n/a	n/a	n/a	n/a	n/a	n/a	n/a	n/a	n/a	n/a	n/a	n/a	n/a	n/a	n/a	n/a	active	At this moment	5	3	11	211	NONE	n/a	0	2117.62172284644	-0.18625	0.230591852421214	2006.22677322677	0.566566566566567	4	2	0	1	0	1	1
356.825281749368	6.02167215633392	panas_none	362.846953905702	71	5	12	n/a	n/a	n/a	n/a	n/a	n/a	n/a	n/a	n/a	n/a	n/a	n/a	n/a	n/a	n/a	n/a	upset	At this moment	3	3	11	211	NONE	n/a	0	2012.71660424469	-0.18125	0.263643351268255	1974.65970772443	1.22803347280335	3	3	0	1	0	1	1
363.847893275738	14.5116509747505	panas_none	378.359544250488	72	5	12	n/a	n/a	n/a	n/a	n/a	n/a	n/a	n/a	n/a	n/a	n/a	n/a	n/a	n/a	n/a	n/a	n/a	n/a	n/a	3	11	211	NONE	n/a	0	2353.3645443196	0.0175	0.255956956187548	2089.32438016529	1.1304347826087	4	4	0	1	0	1	1
379.364810223579	2.51431781256201	reward_rtpj	381.879128036141	73	1	13	10	750	250	250	250	0	0	0	0	2000	0	BLOCKED	0.75	-1	1	1	n/a	n/a	n/a	3	11	211	RTPJ	419.143473625183	0	2827.31335830212	-0.0525	0	2647.26287471176	0.483076923076923	0	1	1	0	0	0	0
382.884636962056	2.51406498658656	reward_rtpj	385.398701948643	74	1	13	10	750	250	250	250	0	0	0	0	2000	0	BLOCKED	0.75	1	4	-1	n/a	n/a	n/a	3	11	211	RTPJ	402.063440561295	0	3033.36329588015	-0.01875	0	2769.54342813221	0.392307692307692	0	2	1	0	0	0	0
386.382721020818	2.51872375440598	reward_rtpj	388.901444775224	75	1	13	10	750	250	250	250	0	0	0	0	2000	0	BLOCKED	0.75	1	2	-1	n/a	n/a	n/a	3	11	211	RTPJ	306.162006855011	0.852684144818976	2867.77118644068	0.170940170940171	0	2654.56418139892	0.313076923076923	1	3	1	0	0	0	0
389.885581268668	2.51873962211613	reward_rtpj	392.404320890784	76	1	13	10	750	250	250	250	0	0	0	0	2000	0	BLOCKED	0.75	-1	2	1	n/a	n/a	n/a	3	11	211	RTPJ	172.808833003044	0	2594.23220973783	-0.03	0.309761721752498	2609.30846325167	0.655133928571429	1	4	1	0	0	0	0
393.405074079394	2.51878123080729	reward_rtpj	395.923855310202	77	1	13	10	750	250	250	250	0	0	0	0	2000	0	BLOCKED	0.75	1	7	1	n/a	n/a	n/a	3	11	211	RTPJ	157.298648238182	0	2599.15355805243	-0.1225	0	2612.97924673328	0.408461538461538	0	5	1	0	0	0	0
396.924646934032	2.51871917033191	reward_rtpj	399.443366104364	78	1	13	10	750	250	250	250	0	0	0	0	2000	0	BLOCKED	0.75	-1	0	1	n/a	n/a	n/a	3	11	211	RTPJ	189.612767219543	0	2593.71161048689	-0.28625	0	2580.72790161414	0.318461538461538	0	6	1	0	0	0	0
400.427445121527	2.51882248687747	reward_rtpj	402.946267608404	79	1	13	10	750	250	250	250	0	0	0	0	2000	0	BLOCKED	0.75	-1	2	1	n/a	n/a	n/a	3	11	211	RTPJ	206.918474674225	0	2444.5468164794	-0.32875	0.297463489623367	2357.77571115974	1.18640350877193	1	7	1	0	0	0	0
403.946848014951	2.51888701570033	reward_rtpj	406.465735030651	80	1	13	10	750	250	250	250	0	0	0	0	2000	0	BLOCKED	0.75	1	8	1	n/a	n/a	n/a	3	11	211	RTPJ	373.339308977127	0	2528.97752808989	-0.22125	0	2443.06379707917	0.45	0	8	1	0	0	0	0
407.466653949022	6.02145423936844	panas_none	413.488108188391	81	5	14	n/a	n/a	n/a	n/a	n/a	n/a	n/a	n/a	n/a	n/a	n/a	n/a	n/a	n/a	n/a	n/a	alert	At this moment	5	3	11	211	NONE	n/a	0.400749063670412	1806.85625	1.16317991631799	0	1997.49884704074	-0.258461538461538	4	1	0	1	0	1	0
414.48878168571	6.02169824993609	panas_none	420.510479935646	82	5	14	n/a	n/a	n/a	n/a	n/a	n/a	n/a	n/a	n/a	n/a	n/a	n/a	n/a	n/a	n/a	n/a	guilty	At this moment	2	3	11	211	NONE	n/a	0	2095.59675405743	-0.17625	0.282090699461952	2185.07494646681	0.869098712446352	4	2	0	1	0	1	0
421.500086567402	6.03295235478879	panas_none	427.533038922191	83	5	14	n/a	n/a	n/a	n/a	n/a	n/a	n/a	n/a	n/a	n/a	n/a	n/a	n/a	n/a	n/a	n/a	hostile	At this moment	1	3	11	211	NONE	n/a	0	1785.98002496879	0.0325	0	1809.29823212913	-0.360769230769231	3	3	0	1	0	1	0
428.516994876146	8.80710507941245	panas_none	437.324099955559	84	5	14	n/a	n/a	n/a	n/a	n/a	n/a	n/a	n/a	n/a	n/a	n/a	n/a	n/a	n/a	n/a	n/a	n/a	n/a	n/a	3	11	211	NONE	n/a	0	2494.8152309613	0.1375	0.303612605687932	2119.27924944812	0.984513274336283	1	4	0	1	0	1	0
438.308268184543	2.51903158843515	reward_rtpj	440.827299772978	85	1	15	10	750	250	250	250	0	0	0	0	2000	0	BLOCKED	0.75	1	8	1	n/a	n/a	n/a	3	11	211	RTPJ	418.979154348373	0	2602.35330836454	0.0875	0	2237.88009223674	0.546923076923077	0	1	1	0	0	0	0
441.827709160686	2.51871846497062	reward_rtpj	444.346427625656	86	1	15	10	750	250	250	250	0	0	0	0	2000	0	BLOCKED	0.75	1	6	1	n/a	n/a	n/a	3	11	211	RTPJ	640.066108345985	0	2648.70287141074	-0.02125	0	2445.49346656418	0.469230769230769	0	2	1	0	0	0	0
445.330536262631	2.51876783120633	reward_rtpj	447.849304093838	87	1	15	10	750	250	250	250	0	0	0	0	2000	0	BLOCKED	0.75	-1	2	1	n/a	n/a	n/a	3	11	211	RTPJ	540.033773541451	0	2885.24469413233	-0.14875	0	2748.41967717141	0.449230769230769	0	3	1	0	0	0	0
448.849992753744	2.51906826055051	reward_rtpj	451.369061014295	88	1	15	10	750	250	250	250	0	0	0	0	2000	0	BLOCKED	0.75	1	7	1	n/a	n/a	n/a	3	11	211	RTPJ	474.308545708656	0	2744.90511860175	-0.2525	0	2561.81014604151	0.614615384615385	0	4	1	0	0	0	0
452.3699460814	2.51835879647734	reward_rtpj	454.888304877877	89	1	15	10	750	250	250	250	0	0	0	0	2000	0	BLOCKED	0.75	-1	7	-1	n/a	n/a	n/a	3	11	211	RTPJ	772.934082388878	0.418227215980025	2892.8025751073	0.989224137931034	0	2607.20599538816	0.513846153846154	1	5	1	0	0	0	0
455.872534814835	2.51857001352312	reward_rtpj	458.391104828358	90	1	15	10	750	250	250	250	0	0	0	0	2000	0	BLOCKED	0.75	-1	4	1	n/a	n/a	n/a	3	11	211	RTPJ	424.243717074394	0	2592.69662921348	-0.52625	0	2559.8285933897	0.553846153846154	0	6	1	0	0	0	0
459.37518031919	2.53540462565422	reward_rtpj	461.910584944844	91	1	15	10	750	250	250	250	0	0	0	0	2000	0	BLOCKED	0.75	-1	4	1	n/a	n/a	n/a	3	11	211	RTPJ	1157.03065979481	0	2704.1872659176	-0.33	0	2537.4950038432	0.514615384615385	0	7	1	0	0	0	0
462.911600127339	2.51861303281788	reward_rtpj	465.430213160157	92	1	15	10	750	250	250	250	0	0	0	0	2000	0	BLOCKED	0.75	1	4	-1	n/a	n/a	n/a	3	11	211	RTPJ	823.260904788971	0	2832.24594257179	-0.3175	0	2525.9331283628	0.638461538461538	0	8	1	0	0	0	0
466.431058734298	6.02154415655133	panas_none	472.452602890849	93	5	16	n/a	n/a	n/a	n/a	n/a	n/a	n/a	n/a	n/a	n/a	n/a	n/a	n/a	n/a	n/a	n/a	nervous	At this moment	2	3	11	211	NONE	n/a	0.374531835205993	1676.52095808383	1.23446893787575	0	1746.24212144504	-0.35	4	1	0	1	0	1	0
473.436563076258	6.02185727989672	panas_none	479.458420356154	94	5	16	n/a	n/a	n/a	n/a	n/a	n/a	n/a	n/a	n/a	n/a	n/a	n/a	n/a	n/a	n/a	n/a	ashamed	At this moment	2	3	11	211	NONE	n/a	0	2196.08114856429	-0.2975	0	2532.99615680246	0.0807692307692308	3	2	0	1	0	1	0
480.464559760213	6.01634941184517	panas_none	486.480909172058	95	5	16	n/a	n/a	n/a	n/a	n/a	n/a	n/a	n/a	n/a	n/a	n/a	n/a	n/a	n/a	n/a	n/a	guilty	At this moment	2	3	11	211	NONE	n/a	0.455680399500624	1988.34633027523	0.311059907834101	0	2495.65949269792	-0.186153846153846	3	3	0	1	0	1	0
487.481463837624	12.0265576565266	panas_none	499.50802149415	96	5	16	n/a	n/a	n/a	n/a	n/a	n/a	n/a	n/a	n/a	n/a	n/a	n/a	n/a	n/a	n/a	n/a	n/a	n/a	n/a	3	11	211	NONE	n/a	0	2648.83645443196	0.20625	0.266717909300538	2123.81132075472	1.3686974789916	2	4	0	1	0	1	0
