onset	duration	trial_type	offset	trial	block	blockCntr	frequency	amplitude_1	amplitude_2	amplitude_3	amplitude_4	amplitude_5	amplitude_6	amplitude_7	amplitude_8	transition	sham	mode	rewardFraction	guess	outcome	correct	word	when	answer	runNr	scanNr	subjectNr	target	reactionTime	outcomeEyeClosed	outcomeParms_1	outcomeParms_2	outcomeParms_3	outcomeSigma	outcomePupilArea	guessEyeClosed	guessParms_1	guessParms_2	guessParms_3	guessSigma	guessPupilArea	nrBlinks	trialInBlock	isReward	isPanas	isPunish	beforePanasReward	beforePanasVLPFC
20.4148944461346	2.54984426689148	reward_vlpfc	22.964738713026	1	2	1	10	0	0	0	0	250	250	250	750	2000	0	BLOCKED	0.75	-1	2	1	interested	At this moment	2	1	6	211	VLPFC	1515.84852027893	0	14624.6858542545	-11.9126204517694	0.0028379993433063	54.8098877948195	2274.7191011236	0	1629.93440642397	-0.0291929762776129	0.000310497437248049	43.9700720865991	1874.73097617218	0	1	1	0	0	0	0
23.9565414396524	2.52758359396458	reward_vlpfc	26.484125033617	2	2	1	10	0	0	0	0	250	250	250	750	2000	0	BLOCKED	0.75	-1	8	-1	proud	At this moment	4	1	6	211	VLPFC	601.219065546989	0	8240.37203323307	-4.56914460803198	0.000977220677650001	21.8277227823247	2997.99126092385	0	1300.42394662836	1.89589619831736	-0.000495251365709618	19.3912333626593	2509.67025365104	0	2	1	0	0	0	0
27.4879752520323	2.53247720420361	reward_vlpfc	30.0204524562359	3	2	1	10	0	0	0	0	250	250	250	750	2000	0	BLOCKED	0.75	-1	1	1	distressed	At this moment	3	1	6	211	VLPFC	435.010506153107	0	16420.947406315	-13.1368343509129	0.00303143547231368	38.738058595497	2354.20099875156	0	1477.00582193043	1.16444270773902	-0.000241520294817179	71.9125104592861	2260.07840122982	0	3	1	0	0	0	0
31.0043012148142	2.53588383126258	reward_vlpfc	33.5401850460768	4	2	1	10	0	0	0	0	250	250	250	750	2000	0	BLOCKED	0.75	1	0	-1	scared	At this moment	4	1	6	211	VLPFC	446.770263075829	0	2446.27830229	0.881945439629103	-0.00028696395964893	22.810766692015	3017.38701622971	0	1703.33837642187	1.48282283226705	-0.000371923224630832	49.1239628004068	2643.40122982321	0	4	1	0	0	0	0
34.5406004282236	2.5187152916193	reward_vlpfc	37.0593157198429	5	2	1	10	0	0	0	0	250	250	250	750	2000	0	BLOCKED	0.75	1	6	1	determined	At this moment	5	1	6	211	VLPFC	358.629916071892	0	15166.3364011525	-11.6633710933957	0.0026244996660046	28.6426760543319	2382.12234706617	0	1791.53323234532	1.11172106224789	-0.000307896734221492	25.7191227168367	2473.86395080707	0	5	1	0	0	0	0
38.0601034648418	2.51873891675472	reward_vlpfc	40.5788423815966	6	2	1	10	0	0	0	0	250	250	250	750	2000	0	BLOCKED	0.75	-1	1	1	attentive	At this moment	3	1	6	211	VLPFC	407.454592585564	0.374531835205993	n/a	n/a	n/a	n/a	2380.45508982036	0	1738.11603007434	0.841946113057622	-0.000150100103533019	26.9105271031181	2324.42352036895	1	6	1	0	0	0	0
41.5815208556652	2.53385875546932	reward_vlpfc	44.1153796111345	7	2	1	10	0	0	0	0	250	250	250	750	2000	0	BLOCKED	0.75	1	10	1	inspired	At this moment	1	1	6	211	VLPFC	638.468403816223	0	14699.0052522142	-11.421339822022	0.00261903051151595	25.9773186579542	2390.4606741573	0	1544.50944711017	1.15395983432178	-0.000298721713237904	22.8926040003052	2268.22521137586	0	7	1	0	0	0	0
45.0992872564793	2.51856401920318	reward_vlpfc	47.6178512756824	8	2	1	10	0	0	0	0	250	250	250	750	2000	0	BLOCKED	0.75	-1	1	1	enthusiastic	At this moment	4	1	6	211	VLPFC	590.693466067314	0	13136.2996700997	-9.61488195513626	0.00209547148806182	45.4299927440005	2297.66167290886	0	1717.91460724421	0.600934591693723	1.90202493741612e-05	31.1923884869629	2245.51114527287	0	8	1	0	0	0	0
48.648815931797	6.00800897622108	panas_none	54.6568249080181	9	5	2	10	n/a	n/a	n/a	n/a	n/a	n/a	n/a	n/a	2000	0	BLOCKED	n/a	n/a	+	0	jittery	At this moment	1	1	6	211	NONE	n/a	0	3370.83345182313	-2.04541184553003	0.000562231875657315	15.170600928314	1585.12359550562	0	1334.78382523637	0.97422594064811	-0.000598109108986581	42.3542596554089	1647.25211375865	0	1	0	1	0	1	1
55.6580347349644	6.03802579951287	panas_none	61.6960605344772	10	5	2	10	n/a	n/a	n/a	n/a	n/a	n/a	n/a	n/a	2000	0	BLOCKED	n/a	n/a	+	0	strong	At this moment	5	1	6	211	NONE	n/a	0	-596.090134399743	2.26594695211751	-0.000533921997595947	20.0631181281193	1780.82147315855	0	2187.50433313634	-0.474799779361506	0.000124772872323904	35.532649846222	1891.49884704074	1	2	0	1	0	1	1
62.6967474312782	6.02177441501618	panas_none	68.7185218462944	11	5	2	10	n/a	n/a	n/a	n/a	n/a	n/a	n/a	n/a	2000	0	BLOCKED	n/a	n/a	+	0	afraid	At this moment	1	1	6	211	NONE	n/a	0	4912.89010485442	-3.48814293875224	0.000930636570890987	11.188548650194	1741.71285892634	0	1867.26651802806	-0.15354313547145	4.14002061397301e-05	18.9982241318232	1772.43504996157	2	3	0	1	0	1	1
69.7191569083929	7.32257630002499	panas_none	77.0417332084179	12	5	2	10	n/a	n/a	n/a	n/a	n/a	n/a	n/a	n/a	2000	0	BLOCKED	n/a	n/a	+	0	scared	At this moment	2	1	6	211	NONE	n/a	0	4380.2141100927	-2.11685610021464	0.000550336001981127	15.4441122519304	2390.96129837703	0	911.29324769964	1.48042880725029	-0.000319851804761845	20.3284669547198	1909.30361260569	0	4	0	1	0	1	1
78.0263506708145	2.51822727036476	reward_rtpj	80.5445779411793	13	1	3	10	750	250	250	250	0	0	0	0	2000	0	BLOCKED	0.75	-1	0	1	enthusiastic	At this moment	4	1	6	211	RTPJ	401.919925689697	0	16050.7111166401	-12.6245637204868	0.00286989521195323	50.1587060005424	2347.51186017478	0	1639.99025092492	0.880688355897889	-0.000104243155310939	18.4456449917127	2298.92621060723	0	1	1	0	0	0	0
81.5453797909021	2.51879674589634	reward_rtpj	84.0641765367985	14	1	3	10	750	250	250	250	0	0	0	0	2000	0	BLOCKED	0.75	1	7	1	proud	At this moment	4	1	6	211	RTPJ	356.773390650749	0	12173.4126160196	-8.96990154206994	0.00201728181105912	25.181923616346	2335.95755305868	0	1511.54764029319	1.13906259485524	-0.000307498206934904	41.7202055619385	2214.10837817064	0	2	1	0	0	0	0
85.0702877315283	2.54670280754566	reward_rtpj	87.6169905390739	15	1	3	10	750	250	250	250	0	0	0	0	2000	0	BLOCKED	0.75	-1	3	1	ashamed	At this moment	4	1	6	211	RTPJ	285.167226552963	0	19647.9715369088	-15.6827523867421	0.00350282529354368	24.4751301994168	2327.5493133583	0	1587.46730354059	0.821088827135337	-4.84910592352306e-05	24.3196495358488	2257.32129131437	0	3	1	0	0	0	0
88.6177345596552	2.53550970518589	reward_rtpj	91.1532442648411	16	1	3	10	750	250	250	250	0	0	0	0	2000	0	BLOCKED	0.75	1	8	1	alert	At this moment	4	1	6	211	RTPJ	257.060526251793	0	14112.6629225526	-11.0092487772307	0.00251128966076214	46.7110644003217	2199.74032459426	0	1376.94200754368	1.43211421711991	-0.000475412010643499	28.8501253415409	2183.84857801691	0	4	1	0	0	0	0
92.1432490004301	2.52957164525986	reward_rtpj	94.67282064569	17	1	3	10	750	250	250	250	0	0	0	0	2000	0	BLOCKED	0.75	-1	2	1	hostile	At this moment	2	1	6	211	RTPJ	314.774662256241	0	13403.9046018026	-10.5419356962915	0.00242447200094426	37.6574939306144	2086.89013732834	0	1457.02578850608	1.02185826170956	-0.000298199842496249	32.2729446413555	2068.52574942352	0	5	1	0	0	0	0
95.6568474755287	2.51910246431827	reward_rtpj	98.175949939847	18	1	3	10	750	250	250	250	0	0	0	0	2000	0	BLOCKED	0.75	1	4	-1	guilty	At this moment	4	1	6	211	RTPJ	343.391951084137	0	4465.32239143644	-2.74934416297508	0.000759101853761154	23.1672976205224	2080.02496878901	0	1175.07593224657	1.03986674708608	-0.000284759261339603	30.9659068362448	1815.54573405073	0	6	1	0	0	0	0
99.1596178061962	2.51877876245976	reward_rtpj	101.678396568656	19	1	3	10	750	250	250	250	0	0	0	0	2000	0	BLOCKED	0.75	1	0	-1	distressed	At this moment	1	1	6	211	RTPJ	357.237081289291	0	5159.94349819912	-2.49871281491616	0.000604738873469784	22.3508817729593	2611.88764044944	0	1863.50968847537	0.636015893678918	-0.000112544061883892	21.9264407204624	2307.08455034589	0	7	1	0	0	0	0
102.682188958049	2.5157085314989	reward_rtpj	105.197897489548	20	1	3	10	750	250	250	250	0	0	0	0	2000	0	BLOCKED	0.75	1	9	1	inspired	At this moment	4	1	6	211	RTPJ	436.675913453102	0	15340.3851380229	-12.2597686856354	0.0028306813115478	48.8166856184027	2228.93632958801	0	1007.55499065347	1.94133822763492	-0.000654114758252365	20.6901564529995	2116.44581091468	0	8	1	0	0	0	0
106.186873995781	6.03356661260128	panas_none	112.220440608382	21	5	4	10	n/a	n/a	n/a	n/a	n/a	n/a	n/a	n/a	2000	0	BLOCKED	n/a	n/a	+	0	active	At this moment	5	1	6	211	NONE	n/a	0	1749.18436047842	-0.354400486122083	9.50236007985549e-05	12.5216081611903	1428.86641697878	0	1299.24774671767	0.726923780783418	-0.000431552142098923	37.2470467383967	1554.1145272867	1	1	0	1	0	1	0
113.2211835711	6.02149549555777	panas_none	119.242679066658	22	5	4	10	n/a	n/a	n/a	n/a	n/a	n/a	n/a	n/a	2000	0	BLOCKED	n/a	n/a	+	0	enthusiastic	At this moment	5	1	6	211	NONE	n/a	0	6809.81910877219	-5.45890744770546	0.00139569251885038	24.2610794867398	1575.22971285893	0	1917.85416256054	-0.153700426700526	-3.54844604618062e-05	27.6285935762063	1756.60261337433	1	2	0	1	0	1	0
120.243405103683	6.05492987692357	panas_none	126.298334980607	23	5	4	10	n/a	n/a	n/a	n/a	n/a	n/a	n/a	n/a	2000	0	BLOCKED	n/a	n/a	+	0	strong	At this moment	5	1	6	211	NONE	n/a	0	4124.93880055009	-2.36807826722205	0.000521922883507045	11.5407518208207	1481.81148564295	0	1631.17481905506	-0.250346415432189	0.000159231947762912	16.3143059623587	1556.32282859339	0	3	0	1	0	1	0
127.290309078932	12.8860784578323	panas_none	140.176387536764	24	5	4	10	n/a	n/a	n/a	n/a	n/a	n/a	n/a	n/a	2000	0	BLOCKED	n/a	n/a	+	0	alert	At this moment	5	1	6	211	NONE	n/a	0	1815.01110467077	0.0707639000694753	4.10249023525355e-05	12.7068842102324	2146.7315855181	0	953.214490055922	1.27050255066665	-0.000363725674556187	16.5075442338618	1725.6664104535	0	4	0	1	0	1	0
141.160467964292	2.51881719779968	punish_vlpfc	143.679285162091	25	4	5	10	0	0	0	0	250	250	250	750	2000	0	BLOCKED	0.25	-1	0	1	guilty	At this moment	2	1	6	211	VLPFC	423.281427145004	0	17649.0956602652	-14.5849661046519	0.0033745670722698	41.788427379676	2081.78027465668	0	1151.14332201251	1.1533614650742	-0.000201079491254138	20.5116887144619	1958.19677171407	0	1	0	0	1	0	0
144.680042934656	2.51913666808605	punish_vlpfc	147.199179602742	26	4	5	10	0	0	0	0	250	250	250	750	2000	0	BLOCKED	0.25	1	2	-1	distressed	At this moment	3	1	6	211	VLPFC	323.307978987694	0	5168.59494461053	-2.55744522891982	0.000595104655445954	14.6310348978494	2454.15480649189	0	1018.83887918069	1.35697987380253	-0.000272630470756417	16.0225995408353	1944.3143735588	0	2	0	0	1	0	0
148.182789287448	2.51878687262536	punish_vlpfc	150.701576160073	27	4	5	10	0	0	0	0	250	250	250	750	2000	0	BLOCKED	0.25	1	9	1	proud	At this moment	4	1	6	211	VLPFC	490.521142363548	0	13561.4154230171	-10.3304532396183	0.00230168938913386	34.5587171839132	2140.96754057428	0	1425.25736480284	0.911295848877449	-0.000132073700584566	16.2228025059887	2099.47194465796	0	3	0	0	1	0	0
151.685721116424	2.51874244308473	punish_vlpfc	154.204463559508	28	4	5	10	0	0	0	0	250	250	250	750	2000	0	BLOCKED	0.25	-1	8	-1	inspired	At this moment	2	1	6	211	VLPFC	290.52064871788	0	1716.19982590461	0.458451809937792	-4.35296799436792e-05	15.8893684260481	2484.55930087391	0	1413.22697981863	0.914471221721433	-0.000206200979491921	28.9237746491779	2013.14219830899	0	4	0	0	1	0	0
155.205060539007	2.5353855843544	punish_vlpfc	157.740446123362	29	4	5	10	0	0	0	0	250	250	250	750	2000	0	BLOCKED	0.25	-1	9	-1	alert	At this moment	4	1	6	211	VLPFC	304.306186676025	0	-1537.05279979877	3.60077538606504	-0.000838490072950751	20.9093865796104	2282.20973782772	0	1660.72302756997	0.61629151689204	-0.000164184614826302	41.2826518178868	2042.92313604919	0	5	0	0	1	0	0
158.748951936007	2.51125674951078	punish_vlpfc	161.260208685517	30	4	5	10	0	0	0	0	250	250	250	750	2000	0	BLOCKED	0.25	-1	6	-1	guilty	At this moment	4	1	6	211	VLPFC	299.957368731499	0.374531835205993	n/a	n/a	n/a	n/a	2369.9001996008	0	1462.32147192166	0.933042352498746	-0.000202272646477726	32.3050183783055	2081.20368946964	1	6	0	0	1	0	0
162.244274303198	2.51875161099434	punish_vlpfc	164.763025914192	31	4	5	10	0	0	0	0	250	250	250	750	2000	0	BLOCKED	0.25	1	1	-1	scared	At this moment	2	1	6	211	VLPFC	322.746613740921	0.433208489388265	n/a	n/a	n/a	n/a	2539.05726872247	0	1520.46646432594	1.04239921460005	-0.000152672298392707	39.7716459075474	2274.96387394312	1	7	0	0	1	0	0
165.763784392118	2.5186137379408	punish_vlpfc	168.282398130059	32	4	5	10	0	0	0	0	250	250	250	750	2000	0	BLOCKED	0.25	-1	10	-1	jittery	At this moment	2	1	6	211	VLPFC	390.343881964684	0.662921348314607	n/a	n/a	n/a	n/a	2696.08888888889	0	1659.41883355029	0.976560412865059	-0.000196176891613876	18.3968479951778	2319.94619523443	1	8	0	0	1	0	0
169.29026112318	6.0480200060606	panas_none	175.338281129241	33	5	6	10	n/a	n/a	n/a	n/a	n/a	n/a	n/a	n/a	2000	0	BLOCKED	n/a	n/a	+	0	attentive	At this moment	5	1	6	211	NONE	n/a	0	3812.73282020457	-2.4603122197826	0.000683447312696435	20.4767936498423	1695.24469413233	0	2732.54667019297	-1.56078651282441	0.00059385986217252	82.6111569173388	1919.8478093774	1	1	0	1	0	0	1
176.322329115987	6.03826875221728	panas_none	182.360597868204	34	5	6	10	n/a	n/a	n/a	n/a	n/a	n/a	n/a	n/a	2000	0	BLOCKED	n/a	n/a	+	0	excited	At this moment	5	1	6	211	NONE	n/a	0	7558.39824829774	-5.51580435894423	0.00127466297463132	14.3569233144569	1664.59550561798	0	2619.96530064237	-1.16982469211702	0.000480742513767066	28.7099124241173	2030.09607993851	1	2	0	1	0	0	1
183.344728367329	6.02150854229924	panas_none	189.366236909628	35	5	6	10	n/a	n/a	n/a	n/a	n/a	n/a	n/a	n/a	2000	0	BLOCKED	n/a	n/a	+	0	alert	At this moment	5	1	6	211	NONE	n/a	0	5777.73925718636	-3.94410908720944	0.000903709643008715	31.7622354318145	1528.06741573034	0	1536.89051385877	0.266720950030242	-3.49579434648331e-05	15.365746002303	1732.80245964643	2	3	0	1	0	0	1
190.366983398437	5.55451537644862	panas_none	195.921498774886	36	5	6	10	n/a	n/a	n/a	n/a	n/a	n/a	n/a	n/a	2000	0	BLOCKED	n/a	n/a	+	0	inspired	At this moment	5	1	6	211	NONE	n/a	0	1628.53118636382	0.762534745126092	-0.000200890106229981	21.8232004906546	2333.06616729089	0	1226.46212964658	0.744300572849467	-3.53997002164944e-05	23.316285032796	1832.37202152191	0	4	0	1	0	0	1
196.923900797725	2.53397159254553	reward_vlpfc	199.45787239027	37	2	7	10	0	0	0	0	250	250	250	750	2000	0	BLOCKED	0.75	1	2	-1	scared	At this moment	2	1	6	211	VLPFC	404.986277937889	0.374531835205993	n/a	n/a	n/a	n/a	2413.86027944112	0	853.782120460752	1.53703477622723	-0.00027365870561178	19.9196306243727	1934.87394312068	1	1	1	0	0	0	0
200.458492995143	2.51870189213753	reward_vlpfc	202.97719488728	38	2	7	10	0	0	0	0	250	250	250	750	2000	0	BLOCKED	0.75	1	8	1	interested	At this moment	1	1	6	211	VLPFC	263.353671073914	0	15315.4877475353	-12.037056176242	0.00269799479992816	43.7862088708988	2074.92509363296	0	979.329176432551	1.91463848509643	-0.000636808377566004	20.6062516185291	2073.6571867794	0	2	1	0	0	0	0
203.961366642594	2.51916522991658	reward_vlpfc	206.480531872511	39	2	7	10	0	0	0	0	250	250	250	750	2000	0	BLOCKED	0.75	-1	3	1	enthusiastic	At this moment	2	1	6	211	VLPFC	307.204693436623	0	14409.3896663392	-11.1553445291323	0.00250379368249678	45.3601587202712	2158.86017478152	0	952.339943870857	1.5321875869052	-0.000356290126879057	26.4739140398911	1959.27517294389	0	3	1	0	0	0	0
207.46434924829	2.55196349143981	reward_vlpfc	210.01631273973	40	2	7	10	0	0	0	0	250	250	250	750	2000	0	BLOCKED	0.75	1	10	1	irritable	At this moment	5	1	6	211	VLPFC	381.408582687378	0	15006.7027429884	-11.9559710542447	0.00269631693685036	25.3177960556812	1916.74157303371	0	1101.27649451197	1.36912460481315	-0.000483721435355491	29.7815021388822	1847.78708685626	0	4	1	0	0	0	0
211.000513409495	2.51878934097292	reward_vlpfc	213.519302750468	41	2	7	10	0	0	0	0	250	250	250	750	2000	0	BLOCKED	0.75	-1	2	1	guilty	At this moment	2	1	6	211	VLPFC	341.12180685997	0	12900.2885213638	-10.3833270991943	0.00236718394911202	33.3437750677251	1660.28963795256	0	620.57647902329	2.07453692331956	-0.000812472777620571	21.8199858253302	1718.1521906226	0	5	1	0	0	0	0
214.50323860538	2.51874561655521	reward_vlpfc	217.021984221935	42	2	7	10	0	0	0	0	250	250	250	750	2000	0	BLOCKED	0.75	1	0	-1	determined	At this moment	4	1	6	211	VLPFC	373.692278027534	0.374531835205993	n/a	n/a	n/a	n/a	1965.33932135729	0	930.648568192685	1.59329440798226	-0.000552156412436111	16.6077241076424	1816.93774019985	1	6	1	0	0	0	0
218.022791713357	2.5188133189678	reward_vlpfc	220.541605032325	43	2	7	10	0	0	0	0	250	250	250	750	2000	0	BLOCKED	0.75	1	7	1	distressed	At this moment	4	1	6	211	VLPFC	456.287379622459	0	12540.8801485468	-9.2407516094656	0.0019971658714295	28.1774671554719	2048.80649188514	0	1601.00681771831	0.810266545265205	-0.000140600221225295	21.5787157913244	2168.88316679477	0	7	1	0	0	0	0
221.542421691895	2.51876359999179	reward_vlpfc	224.061185291886	44	2	7	10	0	0	0	0	250	250	250	750	2000	0	BLOCKED	0.75	-1	1	1	upset	At this moment	3	1	6	211	VLPFC	472.977771401405	0	9613.46399502124	-6.93065446456557	0.0015373238886283	36.9713184183172	1919.3695380774	0	799.427506165872	1.65400145342889	-0.000561789462059999	42.2589758490698	1725.59723289777	0	8	1	0	0	0	0
225.061791792035	6.02163301599026	panas_none	231.083424808025	45	5	8	10	n/a	n/a	n/a	n/a	n/a	n/a	n/a	n/a	2000	0	BLOCKED	n/a	n/a	+	0	enthusiastic	At this moment	5	1	6	211	NONE	n/a	0	1605.86400497537	-0.715760418650298	0.000251268989088875	15.8994128203456	1224.21223470662	0	1058.02947460942	0.966825493989044	-0.000580470693467071	29.1903865486889	1405.41967717141	2	1	0	1	0	1	1
232.091186247468	6.01513535356523	panas_none	238.106321601033	46	5	8	10	n/a	n/a	n/a	n/a	n/a	n/a	n/a	n/a	2000	0	BLOCKED	n/a	n/a	+	0	alert	At this moment	5	1	6	211	NONE	n/a	0	4227.82419413456	-2.63044441676077	0.00058682289434302	12.5259321388664	1323.13233458177	0	1791.62290473544	0.0751848754726194	-0.000179207185523114	26.2400398645715	1701.08301306687	0	2	0	1	0	1	1
239.089915065408	6.02156848704814	panas_none	245.111483552456	47	5	8	10	n/a	n/a	n/a	n/a	n/a	n/a	n/a	n/a	2000	0	BLOCKED	n/a	n/a	+	0	inspired	At this moment	5	1	6	211	NONE	n/a	0	3896.32215585101	-2.5917462687773	0.000622126923039888	10.1299149322977	1230.40699126092	0	1346.74073086506	-0.0534971734888707	1.87572026308658e-05	12.92199822343	1317.72175249808	1	3	0	1	0	1	1
246.11732922709	9.28586047041418	panas_none	255.403189697504	48	5	8	10	n/a	n/a	n/a	n/a	n/a	n/a	n/a	n/a	2000	0	BLOCKED	n/a	n/a	+	0	guilty	At this moment	3	1	6	211	NONE	n/a	0	1290.21078954814	0.65351795725034	-8.77063843981597e-05	18.6173926873117	2271.29338327091	0	1022.23477303248	1.25848149857271	-0.000376701041646637	21.9402247650518	1770.6287471176	0	4	0	1	0	1	1
256.403987668395	2.51873433279991	punish_rtpj	258.922722001195	49	3	9	10	750	250	250	250	0	0	0	0	2000	0	BLOCKED	0.25	-1	8	-1	distressed	At this moment	1	1	6	211	RTPJ	307.695182800293	0	1182.84309183339	0.551749954181753	-3.22930108683134e-05	16.2684138178612	2197.64918851436	0	1033.02159309718	1.33492101154401	-0.000485426270262189	12.3094117155857	1748.56264411991	0	1	0	0	1	0	0
259.923497051954	2.51869730818271	punish_rtpj	262.442194360137	50	3	9	10	750	250	250	250	0	0	0	0	2000	0	BLOCKED	0.25	-1	8	-1	hostile	At this moment	3	1	6	211	RTPJ	257.747775673866	0	4699.32294511741	-2.69184342967716	0.000630905259026309	19.9893775947628	1862.29962546816	0	1143.32312809236	1.16998529309846	-0.000450336100041685	16.8846427345297	1751.23443504996	0	2	0	0	1	0	0
263.426353421092	2.51868708229068	punish_rtpj	265.945040503383	51	3	9	10	750	250	250	250	0	0	0	0	2000	0	BLOCKED	0.25	1	6	1	ashamed	At this moment	2	1	6	211	RTPJ	256.120803713799	0	13211.5329437742	-10.0803928435127	0.00219884346585927	41.1150945697694	1856.81148564295	0	1376.76704424636	0.950014335787071	-0.000217293788824179	27.6684349986435	1998.58570330515	0	3	0	0	1	0	0
266.945858573318	2.51869554507732	punish_rtpj	269.464554118395	52	3	9	10	750	250	250	250	0	0	0	0	2000	0	BLOCKED	0.25	1	2	-1	interested	At this moment	5	1	6	211	RTPJ	273.539348483086	0.339575530586767	n/a	n/a	n/a	n/a	2164.88279773157	0	958.093526516668	1.40152508059373	-0.000449568274760692	23.0514356471461	1761.26287471176	1	4	0	0	1	0	0
270.465475504994	2.53526463687422	punish_rtpj	273.000740141869	53	3	9	10	750	250	250	250	0	0	0	0	2000	0	BLOCKED	0.25	1	3	-1	active	At this moment	3	1	6	211	RTPJ	240.932204961777	0	5081.18908505891	-2.66757367353232	0.000569782257804094	16.0935925903767	2020.97877652934	0	1298.05525763209	0.943925290825121	-0.000289485993593497	25.9415914389171	1851.76863950807	0	5	0	0	1	0	0
273.984844547391	2.51880944013595	punish_rtpj	276.503653987527	54	3	9	10	750	250	250	250	0	0	0	0	2000	0	BLOCKED	0.25	1	0	-1	alert	At this moment	1	1	6	211	RTPJ	240.082399368286	0	152.551145557467	2.24603385408552	-0.000613840387496212	15.4903661171289	2129.53308364544	0	1047.21269208145	1.10502524480387	-0.000254542606141633	23.2518553639937	1770.48885472713	0	6	0	0	1	0	0
277.487744288325	2.51870048165324	punish_rtpj	280.006444769979	55	3	9	10	750	250	250	250	0	0	0	0	2000	0	BLOCKED	0.25	1	2	-1	attentive	At this moment	1	1	6	211	RTPJ	289.413080573082	0.622971285892634	n/a	n/a	n/a	n/a	2101.35430463576	0	1266.2759120832	0.728764757588424	-0.000141456512512317	21.9577709181913	1764.22905457341	1	7	0	0	1	0	0
280.990727951884	2.51858588135246	punish_rtpj	283.509313833237	56	3	9	10	750	250	250	250	0	0	0	0	2000	0	BLOCKED	0.25	-1	3	1	jittery	At this moment	2	1	6	211	RTPJ	423.104766368866	0	13365.5005125055	-9.97072953819944	0.00216494891448028	19.8619731686065	2081.93258426966	0	1467.03492351229	0.752382918897225	-5.26705938670107e-05	23.439433962753	2060.85318985396	0	8	0	0	1	0	0
284.493573390007	6.02135374355316	panas_none	290.51492713356	57	5	10	10	n/a	n/a	n/a	n/a	n/a	n/a	n/a	n/a	2000	0	BLOCKED	n/a	n/a	+	0	nervous	At this moment	2	1	6	211	NONE	n/a	0	1090.09945955428	0.270228353990198	-6.29904805880931e-05	22.5012835070894	1376.70911360799	0	1184.87267887736	0.607915690627434	-0.000322996032481698	63.2936820045904	1434.02152190623	1	1	0	1	0	0	0
291.499022723675	6.03839287328719	panas_none	297.537415596962	58	5	10	10	n/a	n/a	n/a	n/a	n/a	n/a	n/a	n/a	2000	0	BLOCKED	n/a	n/a	+	0	afraid	At this moment	1	1	6	211	NONE	n/a	0	3113.29940011093	-1.97793805895943	0.000547257598055156	15.1012018167228	1402.8252184769	0	1584.65194385694	-0.258881172816463	0.000135865885103231	31.7463049275141	1480.90622598002	1	2	0	1	0	0	0
298.538164906859	6.02169437110427	panas_none	304.559859277964	59	5	10	10	n/a	n/a	n/a	n/a	n/a	n/a	n/a	n/a	2000	0	BLOCKED	n/a	n/a	+	0	strong	At this moment	5	1	6	211	NONE	n/a	0	2578.4528870788	-1.02424014539537	0.000258580113224919	15.8068640285134	1581.41073657928	0.256725595695619	n/a	n/a	n/a	n/a	1730.30610134436	3	3	0	1	0	0	0
305.550392232895	11.486097569704	panas_none	317.036489802599	60	5	10	10	n/a	n/a	n/a	n/a	n/a	n/a	n/a	n/a	2000	0	BLOCKED	n/a	n/a	+	0	distressed	At this moment	2	1	6	211	NONE	n/a	0	1559.13037601845	0.943565671893517	-0.000225446446900187	16.9872192331437	2534.31460674157	0	1370.3874783083	0.874570684004698	-1.7700495691118e-05	33.6967020271647	2098.8186010761	0	4	0	1	0	0	0
318.037453503132	2.51858693921565	reward_rtpj	320.556040442348	61	1	11	10	750	250	250	250	0	0	0	0	2000	0	BLOCKED	0.75	-1	6	-1	hostile	At this moment	4	1	6	211	RTPJ	351.818072557449	0	6234.88772218247	-3.59294905020425	0.00082951909094407	20.4921639320048	2392.03620474407	0	1541.34690068889	0.959339337372723	-0.000255815403956091	25.3164621740535	2136.22059953882	0	1	1	0	0	0	0
321.556839471102	2.51868108773232	reward_rtpj	324.075520558834	62	1	11	10	750	250	250	250	0	0	0	0	2000	0	BLOCKED	0.75	-1	1	1	interested	At this moment	5	1	6	211	RTPJ	208.713644862175	0	10817.5969533054	-7.96849408084195	0.00178413962886979	31.5697503876001	2045.49563046192	0	1580.72155510401	0.905365531904854	-0.000285795822288107	18.998276027067	2103.79631053036	0	2	1	0	0	0	0
325.076289967775	2.51890429389476	reward_rtpj	327.59519426167	63	1	11	10	750	250	250	250	0	0	0	0	2000	0	BLOCKED	0.75	1	10	1	enthusiastic	At this moment	4	1	6	211	RTPJ	290.155338168144	0.374531835205993	n/a	n/a	n/a	n/a	2019.24750499002	0	1263.06688948848	1.01725518464658	-0.00020261511179983	27.668157081537	1953.11837048424	1	3	1	0	0	0	0
328.579077224135	2.5188164924383	reward_rtpj	331.097893716574	64	1	11	10	750	250	250	250	0	0	0	0	2000	0	BLOCKED	0.75	-1	1	1	nervous	At this moment	1	1	6	211	RTPJ	423.485591888428	0	10416.3198251243	-7.49868835201453	0.00163035215928518	24.4116840140779	1942.38701622971	0	1382.06230711452	0.952034162730892	-0.000245806081846394	17.2997232027196	1979.05073020753	0	4	1	0	0	0	0
332.098784425616	2.53534150707725	reward_rtpj	334.634125932694	65	1	11	10	750	250	250	250	0	0	0	0	2000	0	BLOCKED	0.75	1	8	1	excited	At this moment	4	1	6	211	RTPJ	267.367856025696	0	12189.1088836723	-9.32538830233589	0.00208514371765564	32.5853607038271	1909.26966292135	0	1270.97926166523	1.03488490621817	-0.000259875386058547	22.7213219813144	1926.88162951576	0	5	1	0	0	0	0
335.634916851401	2.53537006914615	reward_rtpj	338.170286920547	66	1	11	10	750	250	250	250	0	0	0	0	2000	0	BLOCKED	0.75	-1	8	-1	scared	At this moment	4	1	6	211	RTPJ	456.624833464622	0	2618.71290807726	-0.674776848258452	0.000194025357442231	21.7370156914018	2067.66541822722	0	907.55913851672	1.09572187137629	-0.000316035203329588	55.5705947573995	1566.92313604919	0	6	1	0	0	0	0
339.171027062297	2.53548079073431	reward_rtpj	341.706507853031	67	1	11	10	750	250	250	250	0	0	0	0	2000	0	BLOCKED	0.75	-1	3	1	determined	At this moment	1	1	6	211	RTPJ	278.8151948452	0	11857.3830758305	-9.29682078300461	0.00211246531956124	29.3528919309866	1760.34956304619	0	960.911328854419	1.56132210353038	-0.00059371305719419	21.4112425363415	1807.13681783244	0	7	1	0	0	0	0
342.691498383403	2.51791097366811	reward_rtpj	345.209409357071	68	1	11	10	750	250	250	250	0	0	0	0	2000	0	BLOCKED	0.75	1	6	1	inspired	At this moment	5	1	6	211	RTPJ	574.46711742878	0	9081.23115992296	-6.24871692337625	0.00132434372719319	20.4469359393993	1870.22097378277	0	890.605338250027	1.31800025744358	-0.000267920585262218	18.883869651865	1791.0568793236	0	8	1	0	0	0	0
346.210295129418	6.03811465883251	panas_none	352.248409788251	69	5	12	10	n/a	n/a	n/a	n/a	n/a	n/a	n/a	n/a	2000	0	BLOCKED	n/a	n/a	+	0	strong	At this moment	5	1	6	211	NONE	n/a	0.615480649188514	n/a	n/a	n/a	n/a	1146.43181818182	0	1382.61857178255	-0.0125744479610559	-0.000174037035308011	28.1563713867128	1223.04842428901	3	1	0	1	0	1	0
353.249228210926	6.02156707668303	panas_none	359.270795287609	70	5	12	10	n/a	n/a	n/a	n/a	n/a	n/a	n/a	n/a	2000	0	BLOCKED	n/a	n/a	+	0	jittery	At this moment	1	1	6	211	NONE	n/a	0	6242.46243623582	-4.48921676303184	0.00110287110250305	23.8425472503688	1737.78651685393	0.265949269792467	n/a	n/a	n/a	n/a	1928.84712041885	3	2	0	1	0	1	0
360.271499462485	6.02166087257859	panas_none	366.293160335064	71	5	12	10	n/a	n/a	n/a	n/a	n/a	n/a	n/a	n/a	2000	0	BLOCKED	n/a	n/a	+	0	ashamed	At this moment	2	1	6	211	NONE	n/a	0	5585.6380913473	-3.72361583451516	0.000900290620850558	16.5101300098303	1780.56304619226	0	1817.08399012564	0.256838424067508	-7.50825647590164e-05	16.1218373780186	1970.58877786318	2	3	0	1	0	1	0
367.28464535439	7.03157150900364	panas_none	374.316216863394	72	5	12	10	n/a	n/a	n/a	n/a	n/a	n/a	n/a	n/a	2000	0	BLOCKED	n/a	n/a	+	0	enthusiastic	At this moment	2	1	6	211	NONE	n/a	0	3738.85853841184	-1.20003173918175	0.000295810872565073	17.5073171734215	2539.60049937578	0.234435049961568	1505.63659903211	0.717981084652198	-7.23543069053683e-05	32.3251519128045	1998.77309236948	1	4	0	1	0	1	0
375.322130945563	2.51378395128245	punish_rtpj	377.835914896846	73	3	13	10	750	250	250	250	0	0	0	0	2000	0	BLOCKED	0.25	-1	0	1	distressed	At this moment	5	1	6	211	RTPJ	301.842455983162	0	14211.8113403265	-10.9860435033539	0.00249512993955206	43.3212250046566	2278.06117353308	0	1750.08638385678	0.583170040321355	-1.40795499420531e-06	18.1634922145487	2244.32129131437	0	1	0	0	1	0	0
378.83668853724	2.5189275665283	punish_rtpj	381.355616103768	74	3	13	10	750	250	250	250	0	0	0	0	2000	0	BLOCKED	0.25	1	1	-1	irritable	At this moment	3	1	6	211	RTPJ	223.785527348518	0	2118.02368379657	0.626614126829386	-0.00019139854980607	39.1786589729831	2579.6404494382	0	1341.03899452682	1.15705277065743	-0.000257743227579758	20.1775962566445	2108.98847040738	0	2	0	0	1	0	0
382.363537631154	2.52794467306137	punish_rtpj	384.891482304215	75	3	13	10	750	250	250	250	0	0	0	0	2000	0	BLOCKED	0.25	1	10	1	inspired	At this moment	1	1	6	211	RTPJ	260.072928071022	0	13316.8862197288	-10.0311386314125	0.00223053949299228	29.1837445850757	2204.12484394507	0	1722.10407806668	0.488629915875258	3.13529073006688e-05	36.1698435869295	2164.02997694081	0	3	0	0	1	0	0
385.875672748089	2.53534996998309	punish_rtpj	388.411022718072	76	3	13	10	750	250	250	250	0	0	0	0	2000	0	BLOCKED	0.25	-1	8	-1	attentive	At this moment	3	1	6	211	RTPJ	256.052043318748	0	3425.75297686792	-1.27972448644673	0.000326411924469403	15.7414865989578	2195.46192259675	0	1296.88956798407	1.33414150330602	-0.000472619593162545	27.3829757653012	2023.8285933897	0	4	0	0	1	0	0
389.419211176038	2.51142142140867	punish_rtpj	391.930632597446	77	3	13	10	750	250	250	250	0	0	0	0	2000	0	BLOCKED	0.25	-1	7	-1	nervous	At this moment	3	1	6	211	RTPJ	248.7035176754	0	5722.56801067886	-3.2423932718428	0.00079396026289658	27.3631968124149	2457.37328339576	0	1502.12261602703	0.964570081650603	-0.000232081069934675	27.4403077822694	2130.18831667948	0	5	0	0	1	0	0
392.931364981651	2.51875654768941	punish_rtpj	395.450121529341	78	3	13	10	750	250	250	250	0	0	0	0	2000	0	BLOCKED	0.25	1	0	-1	alert	At this moment	3	1	6	211	RTPJ	111.795265316963	0.709113607990012	n/a	n/a	n/a	n/a	2626.36480686695	0.288239815526518	n/a	n/a	n/a	n/a	2239.85421166307	2	6	0	0	1	0	0
396.450842277169	2.53553156757357	punish_rtpj	398.986373844743	79	3	13	10	750	250	250	250	0	0	0	0	2000	0	BLOCKED	0.25	1	3	-1	jittery	At this moment	2	1	6	211	RTPJ	706.880568504333	0	6571.65335260636	-3.47772635888158	0.000760602198224334	34.3867513873181	2662.88764044944	0	1824.03979068525	0.797054804474899	-0.000138373716551857	20.9398900006934	2391.66410453497	0	7	0	0	1	0	0
399.987155947924	2.51868214547636	punish_rtpj	402.5058380934	80	3	13	10	750	250	250	250	0	0	0	0	2000	0	BLOCKED	0.25	-1	10	-1	irritable	At this moment	4	1	6	211	RTPJ	273.924757957458	0.491885143570537	n/a	n/a	n/a	n/a	2457.18918918919	0	1493.72647382486	1.11303117204909	-0.000228518658281845	27.461954568316	2258.0092236741	1	8	0	0	1	0	0
403.506678730845	6.02164112615583	panas_none	409.528319857001	81	5	14	10	n/a	n/a	n/a	n/a	n/a	n/a	n/a	n/a	2000	0	BLOCKED	n/a	n/a	+	0	proud	At this moment	1	1	6	211	NONE	n/a	0	-1758.43672009419	3.11995261887286	-0.000695950794549734	25.3709438178213	1686.88639200999	0	1866.99891893183	0.0463280760365594	-0.000118313950569274	70.6564598098028	1808.99154496541	2	1	0	1	0	0	0
410.512326235056	6.05487416362763	panas_none	416.567200398684	82	5	14	10	n/a	n/a	n/a	n/a	n/a	n/a	n/a	n/a	2000	0	BLOCKED	n/a	n/a	+	0	determined	At this moment	5	1	6	211	NONE	n/a	0	3420.87163792881	-1.92609290475883	0.000511183058685675	14.027297888476	1657.75031210986	0	1592.06983614686	-0.0676961045708858	7.70619020939994e-05	21.2844124979283	1600.85857033052	1	2	0	1	0	0	0
417.55289475143	6.02091156280039	panas_none	423.57380631423	83	5	14	10	n/a	n/a	n/a	n/a	n/a	n/a	n/a	n/a	2000	0	BLOCKED	n/a	n/a	+	0	afraid	At this moment	1	1	6	211	NONE	n/a	0.294631710362047	n/a	n/a	n/a	n/a	1561.25486725664	0	1793.35315288457	0.235015771068655	-0.000188976206245042	20.1730111929318	1831.72867025365	2	3	0	1	0	0	0
424.557078192353	12.0764352457524	panas_none	436.633513438106	84	5	14	10	n/a	n/a	n/a	n/a	n/a	n/a	n/a	n/a	2000	0	BLOCKED	n/a	n/a	+	0	strong	At this moment	4	1	6	211	NONE	n/a	0	981.444114066704	1.38289853636019	-0.000336489448709595	16.0710372470616	2383.40449438202	0	1415.18659167305	0.832270790795367	-0.000164498218058657	23.9701868516861	1982.33435818601	0	4	0	1	0	0	0
437.634441877007	2.50201396858694	punish_vlpfc	440.136455845594	85	4	15	10	0	0	0	0	250	250	250	750	2000	0	BLOCKED	0.25	1	0	-1	ashamed	At this moment	1	1	6	211	VLPFC	406.444699406624	0	2626.09963334229	-0.0532752014501307	3.66957152507867e-05	16.9865645206636	2678.08239700375	0	1339.38756797351	1.1375586209231	-0.000215527604360294	20.5553650537439	2121.67025365104	0	1	0	0	1	0	0
441.120470686555	2.5354377715588	punish_vlpfc	443.655908458114	86	4	15	10	0	0	0	0	250	250	250	750	2000	0	BLOCKED	0.25	1	2	-1	guilty	At this moment	4	1	6	211	VLPFC	241.060909867287	0	5056.49897481152	-2.63396271026532	0.000670280013536079	24.3064102441991	2517.54556803995	0	1161.6541397778	1.56096061893438	-0.000463521289618475	17.3759866759798	2097.17909300538	0	2	0	0	1	0	0
444.640010042667	2.51869166612624	punish_vlpfc	447.158701708794	87	4	15	10	0	0	0	0	250	250	250	750	2000	0	BLOCKED	0.25	1	3	-1	hostile	At this moment	2	1	6	211	VLPFC	206.611345887184	0	2530.17185805893	0.218863198252112	-7.71792896528637e-05	16.8796371209805	2644.73533083645	0	1649.81443860591	0.881718960587176	-0.000164734986772774	22.9676699175617	2260.84934665642	0	3	0	0	1	0	0
448.159586423397	2.51867297756672	punish_vlpfc	450.678259400964	88	4	15	10	0	0	0	0	250	250	250	750	2000	0	BLOCKED	0.25	1	10	1	irritable	At this moment	3	1	6	211	VLPFC	207.409316778183	0.424469413233458	n/a	n/a	n/a	n/a	2257.23644251627	0	1428.52308237993	1.1607155808561	-0.000259157793125763	26.5568488551424	2193.23597232898	1	4	0	0	1	0	0
451.679027752042	2.51870436036586	punish_vlpfc	454.197732112408	89	4	15	10	0	0	0	0	250	250	250	750	2000	0	BLOCKED	0.25	1	7	1	excited	At this moment	2	1	6	211	VLPFC	67.376883149147	0.404494382022472	n/a	n/a	n/a	n/a	2318.23899371069	0	1750.1200359617	1.24266253597095	-0.000403638060452273	35.2423365119998	2459.57647963105	1	5	0	0	1	0	0
455.187365895629	2.52996058094499	punish_vlpfc	457.717326476574	90	4	15	10	0	0	0	0	250	250	250	750	2000	0	BLOCKED	0.25	1	3	-1	jittery	At this moment	3	1	6	211	VLPFC	634.371706366539	0	2262.75530502081	0.256299338649274	-5.68699922554104e-05	15.9592934176655	2546.95630461923	0	849.709913952236	1.56250429436264	-0.000318719688808261	19.6171172457845	1935.22674865488	0	6	0	0	1	0	0
458.723341054559	2.51343697667119	punish_vlpfc	461.23677803123	91	4	15	10	0	0	0	0	250	250	250	750	2000	0	BLOCKED	0.25	-1	6	-1	enthusiastic	At this moment	1	1	6	211	VLPFC	352.355812430382	0	6290.50770222399	-3.62540028925943	0.000823206463159987	21.1072269355055	2351.29588014981	0	1117.97090446491	1.49951268132473	-0.000449756170699302	32.0573804379135	2012.65872405842	0	7	0	0	1	0	0
462.237993147373	2.51831119310856	punish_vlpfc	464.756304340482	92	4	15	10	0	0	0	0	250	250	250	750	2000	0	BLOCKED	0.25	-1	9	-1	alert	At this moment	2	1	6	211	VLPFC	272.511471390724	0	3866.8403358346	-1.49633432143828	0.00034357486851533	20.8523609821828	2257.42446941323	0	1304.09332514989	1.2270261217935	-0.000364484046501399	23.1239464580078	2033.80399692544	0	8	0	0	1	0	0
465.757287434936	6.02144753968719	panas_none	471.778734974623	93	5	16	10	n/a	n/a	n/a	n/a	n/a	n/a	n/a	n/a	2000	0	BLOCKED	n/a	n/a	+	0	hostile	At this moment	1	1	6	211	NONE	n/a	0	2157.1717143612	-0.83784846597984	0.000231611826700476	15.7152715079518	1432.0961298377	0	1449.1662614032	0.570201755016802	-0.000390585940832418	51.2454928002028	1605.7425057648	1	1	0	1	0	0	1
472.779519898772	6.02151841557026	panas_none	478.801038314343	94	5	16	10	n/a	n/a	n/a	n/a	n/a	n/a	n/a	n/a	2000	0	BLOCKED	n/a	n/a	+	0	proud	At this moment	3	1	6	211	NONE	n/a	0	1836.43486551372	-0.587670862589755	0.000165560167096187	18.5960390989816	1342.62297128589	0	1657.32677706025	-0.335633015003473	0.000133114627141999	14.4652300202823	1486.90315142198	1	2	0	1	0	0	1
479.785206543326	6.03869929683214	panas_none	485.823905840158	95	5	16	10	n/a	n/a	n/a	n/a	n/a	n/a	n/a	n/a	2000	0	BLOCKED	n/a	n/a	+	0	interested	At this moment	5	1	6	211	NONE	n/a	0	3188.45254612365	-1.57453517750921	0.000351091563252592	19.1265282997622	1447.29213483146	0.244427363566487	1927.91401415818	-0.175659248985692	7.37145971625132e-06	48.0104799156311	1728.4496439471	2	3	0	1	0	0	1
486.824216142654	6.07163155257706	panas_none	492.895847695231	96	5	16	10	n/a	n/a	n/a	n/a	n/a	n/a	n/a	n/a	2000	0	BLOCKED	n/a	n/a	+	0	guilty	At this moment	2	1	6	211	NONE	n/a	0	-306.754146793804	2.18910519460012	-0.000453761438354953	18.7706649253248	2265.37578027466	0	1506.74215357074	0.49142478209028	-5.94844546778008e-05	19.2012770084126	1873.41045349731	0	4	0	1	0	0	1
