onset	duration	trial_type	offset	trial	block	blockCntr	frequency	amplitude_1	amplitude_2	amplitude_3	amplitude_4	amplitude_5	amplitude_6	amplitude_7	amplitude_8	transition	sham	mode	rewardFraction	guess	outcome	correct	word	when	answer	runNr	scanNr	subjectNr	target	reactionTime	outcomeEyeClosed	outcomePupilArea	outcomeDilation	guessEyeClosed	guessPupilArea	guessDilation	nrBlinks	trialInBlock	isReward	isPanas	isPunish	beforePanasReward	beforePanasVLPFC
20.4249174612006	2.51601744607277	reward_vlpfc	22.9409349072734	1	2	1	10	0	0	0	0	250	250	250	750	2000	0	BLOCKED	0.75	1	7	1	n/a	n/a	n/a	2	7	222	VLPFC	783.791188738309	0.735330836454432	4052.49528301887	5.03846153846154	0.0207532667179093	4020.73469387755	-0.0879811468970935	1	1	1	0	0	0	0
23.9249102325542	2.55208063361049	reward_vlpfc	26.4769908661647	2	2	1	10	0	0	0	0	250	250	250	750	2000	0	BLOCKED	0.75	1	1	-1	n/a	n/a	n/a	2	7	222	VLPFC	523.636439288035	0.883895131086142	4718.79569892473	0.0326086956521739	0.0868562644119908	4102.14478114478	0.543386689132266	3	2	1	0	0	0	0
27.4611174640916	2.51864197361097	reward_vlpfc	29.9797594377026	3	2	1	10	0	0	0	0	250	250	250	750	2000	0	BLOCKED	0.75	-1	1	1	n/a	n/a	n/a	2	7	222	VLPFC	406.844082330354	1	n/a	n/a	0.851652574942352	3785.44559585492	0.71875	20	3	1	0	0	0	0
30.9873565686699	2.5119757512426	reward_vlpfc	33.4993323199125	4	2	1	10	0	0	0	0	250	250	250	750	2000	0	BLOCKED	0.75	1	6	1	n/a	n/a	n/a	2	7	222	VLPFC	885.965812382288	0.903870162297129	4125.94805194805	1.36363636363636	0.949269792467333	3764.30303030303	4.96363636363636	13	4	1	0	0	0	0
34.5171719137812	2.51896638115402	reward_vlpfc	37.0361382949352	5	2	1	10	0	0	0	0	250	250	250	750	2000	0	BLOCKED	0.75	-1	3	1	n/a	n/a	n/a	2	7	222	VLPFC	929.416676452383	1	n/a	n/a	0.971560338201384	3650.86486486487	0.527777777777778	19	5	1	0	0	0	0
38.0196414661948	2.51876715260745	reward_vlpfc	40.5384086188022	6	2	1	10	0	0	0	0	250	250	250	750	2000	0	BLOCKED	0.75	-1	2	1	n/a	n/a	n/a	2	7	222	VLPFC	790.128066929057	1	n/a	n/a	1	n/a	n/a	23	6	1	0	0	0	0
41.5226420596493	2.51890714151412	reward_vlpfc	44.0415492011635	7	2	1	10	0	0	0	0	250	250	250	750	2000	0	BLOCKED	0.75	1	9	1	n/a	n/a	n/a	2	7	222	VLPFC	690.413298734464	0.97752808988764	4308.5	17	1	n/a	n/a	17	7	1	0	0	0	0
45.0420428648135	2.51876221597195	reward_vlpfc	47.5608050807854	8	2	1	10	0	0	0	0	250	250	250	750	2000	0	BLOCKED	0.75	-1	7	-1	n/a	n/a	n/a	2	7	222	VLPFC	673.992987861857	1	n/a	n/a	0.996156802459646	4099	0	20	8	1	0	0	0	0
48.5741160158943	6.00903686574381	panas_none	54.5831528816381	9	5	2	n/a	n/a	n/a	n/a	n/a	n/a	n/a	n/a	n/a	n/a	n/a	n/a	n/a	n/a	n/a	n/a	determined	At this moment	5	2	7	222	NONE	n/a	0.425717852684145	3883.74347826087	0.907894736842105	0.215987701767871	3821.8362745098	0.160942100098135	11	1	0	1	0	1	1
55.5718772512386	6.01695628855191	panas_none	61.5888335397905	10	5	2	n/a	n/a	n/a	n/a	n/a	n/a	n/a	n/a	n/a	n/a	n/a	n/a	n/a	n/a	n/a	n/a	irritable	At this moment	3	2	7	222	NONE	n/a	0.921348314606742	3821.55555555556	0.283018867924528	0.152959262106072	3720.2613430127	0.481380563124432	6	2	0	1	0	1	1
62.5904933075067	6.00400008603931	panas_none	68.594493393546	11	5	2	n/a	n/a	n/a	n/a	n/a	n/a	n/a	n/a	n/a	n/a	n/a	n/a	n/a	n/a	n/a	n/a	upset	At this moment	1	2	7	222	NONE	n/a	0.617977528089888	3476.44444444444	-0.0295081967213115	0	3593.40891621829	-0.253076923076923	4	3	0	1	0	1	1
69.5970533921914	6.13660413711332	panas_none	75.7336575293047	12	5	2	n/a	n/a	n/a	n/a	n/a	n/a	n/a	n/a	n/a	n/a	n/a	n/a	n/a	n/a	n/a	n/a	n/a	n/a	n/a	2	7	222	NONE	n/a	0	3536.21223470662	-0.48	0.876249039200615	3738.84472049689	2.75471698113208	5	4	0	1	0	1	1
76.7345383663038	2.55207146557142	reward_vlpfc	79.2866098318752	13	2	3	10	0	0	0	0	250	250	250	750	2000	0	BLOCKED	0.75	-1	9	-1	n/a	n/a	n/a	2	7	222	VLPFC	806.737380458973	0.580524344569288	4357.66071428571	2.15615615615616	0	3664.82705611068	0.666923076923077	1	1	1	0	0	0	0
80.2873087185584	2.51892124618962	reward_vlpfc	82.806229964748	14	2	3	10	0	0	0	0	250	250	250	750	2000	0	BLOCKED	0.75	1	10	1	n/a	n/a	n/a	2	7	222	VLPFC	540.232705992647	0.953807740324594	4124.48648648649	1.83333333333333	0.415065334358186	4049.80420499343	-0.145888594164456	2	2	1	0	0	0	0
83.806935903769	2.51867159342952	reward_vlpfc	86.3256074971985	15	2	3	10	0	0	0	0	250	250	250	750	2000	0	BLOCKED	0.75	1	6	1	n/a	n/a	n/a	2	7	222	VLPFC	974.207837333903	1	n/a	n/a	0.597232897770945	3663.65076335878	0.325670498084291	7	3	1	0	0	0	0
87.3098197810315	2.51862222706433	reward_vlpfc	89.8284420080958	16	2	3	10	0	0	0	0	250	250	250	750	2000	0	BLOCKED	0.75	1	2	-1	n/a	n/a	n/a	2	7	222	VLPFC	443.12483449094	1	n/a	n/a	0.227517294388932	3671.22686567164	0.0806772908366534	10	4	1	0	0	0	0
90.8125047823656	2.51883062364907	reward_vlpfc	93.3313354060147	17	2	3	10	0	0	0	0	250	250	250	750	2000	0	BLOCKED	0.75	-1	1	1	n/a	n/a	n/a	2	7	222	VLPFC	523.864229802042	0.957553058676654	4102.47058823529	2.63636363636364	0	3705.36587240584	0.373076923076923	1	5	1	0	0	0	0
94.3322409261968	2.51865960445627	reward_vlpfc	96.8509005306531	18	2	3	10	0	0	0	0	250	250	250	750	2000	0	BLOCKED	0.75	1	7	1	n/a	n/a	n/a	2	7	222	VLPFC	806.863969923928	1	n/a	n/a	0.490392006149116	3738.37405731523	0.318731117824773	12	6	1	0	0	0	0
97.8349689467931	2.51871002867074	reward_vlpfc	100.353678975464	19	2	3	10	0	0	0	0	250	250	250	750	2000	0	BLOCKED	0.75	1	8	1	n/a	n/a	n/a	2	7	222	VLPFC	856.666522093117	0.656679151061174	4171.89090909091	0.77007299270073	0.350499615680246	3613.93609467456	0.525504151838671	3	7	1	0	0	0	0
101.341472083849	2.51497793147155	reward_vlpfc	103.85645001532	20	2	3	10	0	0	0	0	250	250	250	750	2000	0	BLOCKED	0.75	1	9	1	n/a	n/a	n/a	2	7	222	VLPFC	1120.5272750929	0.83645443196005	3896.16030534351	0.646153846153846	0.385088393543428	3624.8575	1.58585858585859	2	8	1	0	0	0	0
104.840902783874	6.00466230056435	panas_none	110.845565084439	21	5	4	n/a	n/a	n/a	n/a	n/a	n/a	n/a	n/a	n/a	n/a	n/a	n/a	n/a	n/a	n/a	n/a	nervous	At this moment	2	2	7	222	NONE	n/a	0.662921348314607	3334.98148148148	0.657992565055762	0.272098385857033	3655.40443505808	-0.903703703703704	10	1	0	1	0	1	1
111.829596828422	6.00494509931282	panas_none	117.834541927734	22	5	4	n/a	n/a	n/a	n/a	n/a	n/a	n/a	n/a	n/a	n/a	n/a	n/a	n/a	n/a	n/a	n/a	proud	At this moment	5	2	7	222	NONE	n/a	0.702871410736579	3836.0756302521	0.0168776371308017	1	n/a	n/a	6	2	0	1	0	1	1
118.835374103603	6.00488832799344	panas_none	124.840262431596	23	5	4	n/a	n/a	n/a	n/a	n/a	n/a	n/a	n/a	n/a	n/a	n/a	n/a	n/a	n/a	n/a	n/a	hostile	At this moment	2	2	7	222	NONE	n/a	0.99625468164794	1915.33333333333	-2	0.249807840122982	3193.68647540984	-0.0123076923076923	10	3	0	1	0	1	1
125.824343894562	12.6769119505035	panas_none	138.501255845065	24	5	4	n/a	n/a	n/a	n/a	n/a	n/a	n/a	n/a	n/a	n/a	n/a	n/a	n/a	n/a	n/a	n/a	n/a	n/a	n/a	2	7	222	NONE	n/a	0	3439.66666666667	-0.41	0.707148347425058	3790.01312335958	0.519788918205805	9	4	0	1	0	1	1
139.502303822473	2.51855840340721	punish_rtpj	142.02086222588	25	3	5	10	750	250	250	250	0	0	0	0	2000	0	BLOCKED	0.25	-1	10	-1	n/a	n/a	n/a	2	7	222	RTPJ	311.040893333033	0.710362047440699	3715.86637931034	3.91666666666667	0	3370.95849346656	0.478461538461538	1	1	0	0	1	0	0
143.021736010541	2.51869803969655	punish_rtpj	145.540434050238	26	3	5	10	750	250	250	250	0	0	0	0	2000	0	BLOCKED	0.25	1	0	-1	n/a	n/a	n/a	2	7	222	RTPJ	494.376642093062	0.853932584269663	4022.28205128205	0.456896551724138	0.426594926979247	3681.5254691689	0.763907734056988	2	2	0	0	1	0	0
146.524461210202	2.51888845281863	punish_rtpj	149.043349663021	27	3	5	10	750	250	250	250	0	0	0	0	2000	0	BLOCKED	0.25	-1	1	1	n/a	n/a	n/a	2	7	222	RTPJ	457.44601699803	1	n/a	n/a	0.966948501152959	3045.06976744186	-4.16216216216216	19	3	0	0	1	0	0
150.050866397338	2.5120194757348	punish_rtpj	152.562885873073	28	3	5	10	750	250	250	250	0	0	0	0	2000	0	BLOCKED	0.25	-1	4	1	n/a	n/a	n/a	2	7	222	RTPJ	332.831206876785	0.97752808988764	4753.38888888889	-2.05882352941176	0	3971.09223674097	0.671538461538462	1	4	0	0	1	0	0
153.546929253414	2.51877914158254	punish_rtpj	156.065708394997	29	3	5	10	750	250	250	250	0	0	0	0	2000	0	BLOCKED	0.25	1	2	-1	n/a	n/a	n/a	2	7	222	RTPJ	556.392785599455	0.923845193508115	4578.16393442623	0.866666666666667	0.117601844734819	4004.80400696864	0.440278988666085	4	5	0	0	1	0	0
157.066524350488	2.51875904241948	punish_rtpj	159.585283392907	30	3	5	10	750	250	250	250	0	0	0	0	2000	0	BLOCKED	0.25	-1	8	-1	n/a	n/a	n/a	2	7	222	RTPJ	1090.1383986054	1	n/a	n/a	0.91391237509608	3659.82142857143	1.04672897196262	14	6	0	0	1	0	0
160.569278112117	2.51874775867816	punish_rtpj	163.088025870795	31	3	5	10	750	250	250	250	0	0	0	0	2000	0	BLOCKED	0.25	1	2	-1	n/a	n/a	n/a	2	7	222	RTPJ	509.836071931757	1	n/a	n/a	0.811683320522675	4090.07346938776	-0.596707818930041	15	7	0	0	1	0	0
164.072216292381	2.51864232622739	punish_rtpj	166.590858618609	32	3	5	10	750	250	250	250	0	0	0	0	2000	0	BLOCKED	0.25	1	0	-1	n/a	n/a	n/a	2	7	222	RTPJ	539.588122311048	1	n/a	n/a	0.800153727901614	3974.59230769231	-0.507751937984496	19	8	0	0	1	0	0
167.575020478225	6.00537388145551	panas_none	173.580394359681	33	5	6	n/a	n/a	n/a	n/a	n/a	n/a	n/a	n/a	n/a	n/a	n/a	n/a	n/a	n/a	n/a	n/a	scared	At this moment	3	2	7	222	NONE	n/a	0.569288389513109	3445.93043478261	0.127218934911243	0.682551883166795	3816.21791767554	-1.78883495145631	11	1	0	1	0	0	0
174.580712420118	6.00483578807581	panas_none	180.585548208194	34	5	6	n/a	n/a	n/a	n/a	n/a	n/a	n/a	n/a	n/a	n/a	n/a	n/a	n/a	n/a	n/a	n/a	jittery	At this moment	3	2	7	222	NONE	n/a	0.234706616729089	3149.56443719413	0.111111111111111	0.390468870099923	3379.31651954603	-0.344303797468354	3	2	0	1	0	0	0
181.586467833052	6.00473035562504	panas_none	187.591198188677	35	5	6	n/a	n/a	n/a	n/a	n/a	n/a	n/a	n/a	n/a	n/a	n/a	n/a	n/a	n/a	n/a	n/a	irritable	At this moment	4	2	7	222	NONE	n/a	0.616729088639201	3471.14332247557	0.155629139072848	0.493466564181399	3617.0440060698	0.237442922374429	12	3	0	1	0	0	0
188.579471913887	14.9247032464389	panas_none	203.504175160326	36	5	6	n/a	n/a	n/a	n/a	n/a	n/a	n/a	n/a	n/a	n/a	n/a	n/a	n/a	n/a	n/a	n/a	n/a	n/a	n/a	2	7	222	NONE	n/a	0.0224719101123595	4090.38058748404	-0.516624040920716	1	n/a	n/a	25	4	0	1	0	0	0
204.511328346625	2.51372296794784	punish_rtpj	207.025051314573	37	3	7	10	750	250	250	250	0	0	0	0	2000	0	BLOCKED	0.25	-1	10	-1	n/a	n/a	n/a	2	7	222	RTPJ	533.995265765116	0.978776529338327	4139.52941176471	3.33333333333333	0	3895.77632590315	0.446153846153846	4	1	0	0	1	0	0
208.027114123399	2.51612993086223	punish_rtpj	210.543244054262	38	3	7	10	750	250	250	250	0	0	0	0	2000	0	BLOCKED	0.25	1	0	-1	n/a	n/a	n/a	2	7	222	RTPJ	837.349463440478	0.873907615480649	4326.54455445545	-0.912087912087912	0.654112221368178	3687.03777777778	0.248306997742664	2	2	0	0	1	0	0
211.52739886154	2.51864197361095	punish_rtpj	214.046040835151	39	3	7	10	750	250	250	250	0	0	0	0	2000	0	BLOCKED	0.25	1	0	-1	n/a	n/a	n/a	2	7	222	RTPJ	340.026001970284	1	n/a	n/a	0.647194465795542	3773.83442265795	0.343544857768052	14	3	0	0	1	0	0
215.030134992325	2.51877984681539	punish_rtpj	217.54891483914	40	3	7	10	750	250	250	250	0	0	0	0	2000	0	BLOCKED	0.25	-1	3	1	n/a	n/a	n/a	2	7	222	RTPJ	390.3733472405	1	n/a	n/a	0.41967717140661	4051.56158940397	0.49136786188579	10	4	0	0	1	0	0
218.549618309843	2.51886694318893	punish_rtpj	221.068485253032	41	3	7	10	750	250	250	250	0	0	0	0	2000	0	BLOCKED	0.25	-1	6	-1	n/a	n/a	n/a	2	7	222	RTPJ	668.808814294636	1	n/a	n/a	0.803228285933897	3766.9921875	0.0772357723577236	10	5	0	0	1	0	0
222.069320602452	2.51869098735878	punish_rtpj	224.588011589811	42	3	7	10	750	250	250	250	0	0	0	0	2000	0	BLOCKED	0.25	1	7	1	n/a	n/a	n/a	2	7	222	RTPJ	506.208349333145	1	n/a	n/a	0.661029976940815	3795.02947845805	0.320454545454545	15	6	0	0	1	0	0
225.588879027369	2.53535777744091	punish_rtpj	228.12423680481	43	3	7	10	750	250	250	250	0	0	0	0	2000	0	BLOCKED	0.25	1	1	-1	n/a	n/a	n/a	2	7	222	RTPJ	1223.75234446209	0.935081148564295	4114	-1.37777777777778	0.995388162951576	4218.5	5	23	7	0	0	1	0	0
229.141844024149	2.51864832071399	punish_rtpj	231.660492344863	44	3	7	10	750	250	250	250	0	0	0	0	2000	0	BLOCKED	0.25	-1	6	-1	n/a	n/a	n/a	2	7	222	RTPJ	958.213840282522	0.799001248439451	4193.70807453416	2.92993630573248	0.122982321291314	4002.48641542507	-0.276315789473684	2	8	0	0	1	0	0
232.661447584026	6.02132803279628	panas_none	238.682775616823	45	5	8	n/a	n/a	n/a	n/a	n/a	n/a	n/a	n/a	n/a	n/a	n/a	n/a	n/a	n/a	n/a	n/a	hostile	At this moment	4	2	7	222	NONE	n/a	1	n/a	n/a	0.294388931591084	3635.78213507625	-0.482532751091703	5	1	0	1	0	0	0
239.669244648774	6.00261923828347	panas_none	245.671863887058	46	5	8	n/a	n/a	n/a	n/a	n/a	n/a	n/a	n/a	n/a	n/a	n/a	n/a	n/a	n/a	n/a	n/a	upset	At this moment	4	2	7	222	NONE	n/a	0.275905118601748	3285.25172413793	-0.193436960276339	0.122982321291314	3356.46099912358	-0.0614035087719298	6	2	0	1	0	0	0
246.661616840136	5.99919250731449	panas_none	252.660809347451	47	5	8	n/a	n/a	n/a	n/a	n/a	n/a	n/a	n/a	n/a	n/a	n/a	n/a	n/a	n/a	n/a	n/a	scared	At this moment	5	2	7	222	NONE	n/a	0.293383270911361	3083.78091872792	0.490265486725664	0.956187548039969	2881.43859649123	-1.17857142857143	26	3	0	1	0	0	0
253.661712751932	13.6443037032886	panas_none	267.30601645522	48	5	8	n/a	n/a	n/a	n/a	n/a	n/a	n/a	n/a	n/a	n/a	n/a	n/a	n/a	n/a	n/a	n/a	n/a	n/a	n/a	2	7	222	NONE	n/a	1	n/a	n/a	0.920061491160646	3834.99038461538	0.592233009708738	7	4	0	1	0	0	0
268.294390323628	2.51456219615415	reward_rtpj	270.808952519782	49	1	9	10	750	250	250	250	0	0	0	0	2000	0	BLOCKED	0.75	1	7	1	n/a	n/a	n/a	2	7	222	RTPJ	852.324045051821	0.662921348314607	3510.11851851852	5.86792452830189	0.221368178324366	3390.6771964462	0.0879446640316206	1	1	1	0	0	0	0
271.809645764594	2.51874317466007	reward_rtpj	274.328388939254	50	1	9	10	750	250	250	250	0	0	0	0	2000	0	BLOCKED	0.75	1	9	1	n/a	n/a	n/a	2	7	222	RTPJ	690.262731321156	0.973782771535581	4001.19047619048	0.85	0.788624135280553	3792.28363636364	2.18867924528302	3	2	1	0	0	0	0
275.329270834104	2.51866524632652	reward_rtpj	277.847936080431	51	1	9	10	750	250	250	250	0	0	0	0	2000	0	BLOCKED	0.75	-1	6	-1	n/a	n/a	n/a	2	7	222	RTPJ	406.486881417222	0.940074906367041	4447.0625	3.19148936170213	0	3873.97924673328	0.580769230769231	1	3	1	0	0	0	0
278.848829259021	2.51864373669491	reward_rtpj	281.367472995716	52	1	9	10	750	250	250	250	0	0	0	0	2000	0	BLOCKED	0.75	-1	0	1	n/a	n/a	n/a	2	7	222	RTPJ	606.476373433135	1	n/a	n/a	0.619523443504996	4096.75757575758	0.353061224489796	12	4	1	0	0	0	0
282.368296708779	2.51871813885964	reward_rtpj	284.887014847639	53	1	9	10	750	250	250	250	0	0	0	0	2000	0	BLOCKED	0.75	1	1	-1	n/a	n/a	n/a	2	7	222	RTPJ	523.25913921278	1	n/a	n/a	0.671022290545734	3844.76635514019	-0.824940047961631	9	5	1	0	0	0	0
285.871075858825	2.51872836474888	reward_rtpj	288.389804223574	54	1	9	10	750	250	250	250	0	0	0	0	2000	0	BLOCKED	0.75	-1	2	1	n/a	n/a	n/a	2	7	222	RTPJ	590.300778683275	1	n/a	n/a	0.234435049961568	4013.60843373494	0.41046277665996	8	6	1	0	0	0	0
289.390728432451	2.51868358240461	reward_rtpj	291.909412014856	55	1	9	10	750	250	250	250	0	0	0	0	2000	0	BLOCKED	0.75	1	9	1	n/a	n/a	n/a	2	7	222	RTPJ	706.259549306706	1	n/a	n/a	0	3907.94158339739	0.163076923076923	3	7	1	0	0	0	0
292.910159210053	2.51878125728388	reward_rtpj	295.428940467337	56	1	9	10	750	250	250	250	0	0	0	0	2000	0	BLOCKED	0.75	1	8	1	n/a	n/a	n/a	2	7	222	RTPJ	826.159166328609	0.941323345817728	3997.31914893617	-0.826086956521739	0.115295926210607	3827.80191138141	0.284347826086957	3	8	1	0	0	0	0
296.42978674788	6.00477337488627	panas_none	302.434560122767	57	5	10	n/a	n/a	n/a	n/a	n/a	n/a	n/a	n/a	n/a	n/a	n/a	n/a	n/a	n/a	n/a	n/a	scared	At this moment	3	2	7	222	NONE	n/a	0.370786516853933	3454.43452380952	0.666003976143141	0.208301306687164	3607.13883495146	-0.619047619047619	6	1	0	1	0	1	0
303.435460353696	6.00473811319659	panas_none	309.440198466892	58	5	10	n/a	n/a	n/a	n/a	n/a	n/a	n/a	n/a	n/a	n/a	n/a	n/a	n/a	n/a	n/a	n/a	determined	At this moment	5	2	7	222	NONE	n/a	0.97752808988764	3800.61111111111	0.8125	0.370484242890085	3998.39316239316	-0.517114914425428	6	2	0	1	0	1	0
310.441161111011	6.00502091194409	panas_none	316.446182022955	59	5	10	n/a	n/a	n/a	n/a	n/a	n/a	n/a	n/a	n/a	n/a	n/a	n/a	n/a	n/a	n/a	n/a	interested	At this moment	5	2	7	222	NONE	n/a	0.975031210986267	2499.45	3.0625	0.348193697156034	3017.31839622642	0.638196915776987	20	3	0	1	0	1	0
317.446674628755	7.53958248044177	panas_none	324.986257109197	60	5	10	n/a	n/a	n/a	n/a	n/a	n/a	n/a	n/a	n/a	n/a	n/a	n/a	n/a	n/a	n/a	n/a	n/a	n/a	n/a	2	7	222	NONE	n/a	1	n/a	n/a	1	n/a	n/a	6	4	0	1	0	1	0
325.973817490432	2.53203118966894	punish_vlpfc	328.505848680101	61	4	11	10	0	0	0	0	250	250	250	750	2000	0	BLOCKED	0.25	-1	6	-1	n/a	n/a	n/a	2	7	222	VLPFC	504.098642460071	0.975031210986267	3015.55	2.76470588235294	0	3541.15295926211	0.68	4	1	0	0	1	0	0
329.489835289123	2.518696629229	punish_vlpfc	332.008531918352	62	4	11	10	0	0	0	0	250	250	250	750	2000	0	BLOCKED	0.25	1	3	-1	n/a	n/a	n/a	2	7	222	VLPFC	507.917130798101	0.946317103620474	4155.6976744186	0.69047619047619	0	3891.26133743274	0.396923076923077	1	2	0	0	1	0	0
333.00951959827	2.5186532573523	punish_vlpfc	335.528172855622	63	4	11	10	0	0	0	0	250	250	250	750	2000	0	BLOCKED	0.25	1	2	-1	n/a	n/a	n/a	2	7	222	VLPFC	656.717228403315	0.933832709113608	3998.56603773585	-0.557692307692308	0	3796.82936202921	0.216153846153846	2	3	0	0	1	0	0
336.529042761497	2.5186715934305	punish_vlpfc	339.047714354928	64	4	11	10	0	0	0	0	250	250	250	750	2000	0	BLOCKED	0.25	-1	7	-1	n/a	n/a	n/a	2	7	222	VLPFC	456.168133377098	0.915106117353308	4197.25	0.970149253731343	0	3800.38585703305	0.131538461538462	1	4	0	0	1	0	0
340.055110846884	2.51217286408411	punish_vlpfc	342.567283710968	65	4	11	10	0	0	0	0	250	250	250	750	2000	0	BLOCKED	0.25	-1	3	1	n/a	n/a	n/a	2	7	222	VLPFC	267.792783976533	1	n/a	n/a	0	3850.5426594927	0.380769230769231	1	5	0	0	1	0	0
343.568109187116	2.51877984681539	punish_vlpfc	346.086889033931	66	4	11	10	0	0	0	0	250	250	250	750	2000	0	BLOCKED	0.25	1	0	-1	n/a	n/a	n/a	2	7	222	VLPFC	923.659500433132	0.765293383270911	4012.62765957447	0.294117647058824	0.58032282859339	3957.03113553114	0.564245810055866	2	6	0	0	1	0	0
347.070885868842	2.518847901877	punish_vlpfc	349.589733770719	67	4	11	10	0	0	0	0	250	250	250	750	2000	0	BLOCKED	0.25	-1	8	-1	n/a	n/a	n/a	2	7	222	VLPFC	701.014725634828	0.963795255930087	4211.03448275862	1.28571428571429	0.423520368946964	4149.87733333333	0.728129205921938	2	7	0	0	1	0	0
350.57371473787	2.51882533439527	punish_vlpfc	353.092540072265	68	4	11	10	0	0	0	0	250	250	250	750	2000	0	BLOCKED	0.25	1	6	1	n/a	n/a	n/a	2	7	222	VLPFC	673.3614510037	0.983770287141074	4377.23076923077	-0.5	0	4098.35895465027	0.352307692307692	5	8	0	0	1	0	0
354.080954844233	6.00049472150118	panas_none	360.081449565734	69	5	12	n/a	n/a	n/a	n/a	n/a	n/a	n/a	n/a	n/a	n/a	n/a	n/a	n/a	n/a	n/a	n/a	guilty	At this moment	5	2	7	222	NONE	n/a	0.820224719101124	3283.44444444444	-0.0305343511450382	0.405841660261337	3976.12677878396	-1.33290155440415	2	1	0	1	0	0	1
361.082314182357	6.00477972199025	panas_none	367.087093904347	70	5	12	n/a	n/a	n/a	n/a	n/a	n/a	n/a	n/a	n/a	n/a	n/a	n/a	n/a	n/a	n/a	n/a	nervous	At this moment	4	2	7	222	NONE	n/a	1	n/a	n/a	0.637202152190623	3604.63771186441	-0.234408602150538	13	2	0	1	0	0	1
368.088275523556	6.00476561731477	panas_none	374.093041140871	71	5	12	n/a	n/a	n/a	n/a	n/a	n/a	n/a	n/a	n/a	n/a	n/a	n/a	n/a	n/a	n/a	n/a	afraid	At this moment	5	2	7	222	NONE	n/a	0.631710362047441	2953.85762711864	0.850174216027875	0.230591852421214	3013.94905094905	-0.197197197197197	10	3	0	1	0	0	1
375.078582790391	10.9239155002981	panas_none	386.002498290689	72	5	12	n/a	n/a	n/a	n/a	n/a	n/a	n/a	n/a	n/a	n/a	n/a	n/a	n/a	n/a	n/a	n/a	n/a	n/a	n/a	2	7	222	NONE	n/a	0	3485.51061173533	0.03875	0.581860107609531	3634.68198529412	0.928436911487759	3	4	0	1	0	0	1
387.003196472138	2.5187569267182	punish_vlpfc	389.521953398856	73	4	13	10	0	0	0	0	250	250	250	750	2000	0	BLOCKED	0.25	1	4	-1	n/a	n/a	n/a	2	7	222	VLPFC	1257.46921918914	0.990012484394507	4168.5	3.57142857142857	0	3629.92774788624	0.653846153846154	5	1	0	0	1	0	0
390.506239732237	2.518657488754	punish_vlpfc	393.024897220991	74	4	13	10	0	0	0	0	250	250	250	750	2000	0	BLOCKED	0.25	-1	10	-1	n/a	n/a	n/a	2	7	222	VLPFC	556.400190553628	1	n/a	n/a	0.888547271329746	3705.17931034483	-0.316546762589928	14	2	0	0	1	0	0
394.025728339008	2.51869380829481	punish_vlpfc	396.544422147303	75	4	13	10	0	0	0	0	250	250	250	750	2000	0	BLOCKED	0.25	-1	7	-1	n/a	n/a	n/a	2	7	222	VLPFC	556.423815885559	0.993757802746567	2712	0	0.889315910837817	3760.75	0.533898305084746	18	3	0	0	1	0	0
397.528574133647	2.5186395052923	punish_vlpfc	400.047213638939	76	4	13	10	0	0	0	0	250	250	250	750	2000	0	BLOCKED	0.25	-1	4	1	n/a	n/a	n/a	2	7	222	VLPFC	641.345952786505	0.980024968789014	2513.125	6.21428571428571	0.880092236740968	3504.3141025641	-0.75187969924812	7	4	0	0	1	0	0
401.048000327228	2.51881581373982	punish_vlpfc	403.566816140967	77	4	13	10	0	0	0	0	250	250	250	750	2000	0	BLOCKED	0.25	-1	9	-1	n/a	n/a	n/a	2	7	222	VLPFC	624.054678186774	1	n/a	n/a	0.953881629515757	3248.75	7.24	15	5	0	0	1	0	0
404.56770120937	2.51864867333228	punish_vlpfc	407.086349882702	78	4	13	10	0	0	0	0	250	250	250	750	2000	0	BLOCKED	0.25	1	7	1	n/a	n/a	n/a	2	7	222	VLPFC	439.524263392203	1	n/a	n/a	0.970023059185242	3171.61538461538	-0.891891891891892	19	6	0	0	1	0	0
408.087191579225	2.51868922427485	punish_vlpfc	410.6058808035	79	4	13	10	0	0	0	0	250	250	250	750	2000	0	BLOCKED	0.25	1	3	-1	n/a	n/a	n/a	2	7	222	VLPFC	706.992639828473	1	n/a	n/a	0.958493466564181	2814.35185185185	-0.0909090909090909	18	7	0	0	1	0	0
411.606589916073	2.51881510850603	punish_vlpfc	414.125405024579	80	4	13	10	0	0	0	0	250	250	250	750	2000	0	BLOCKED	0.25	-1	10	-1	n/a	n/a	n/a	2	7	222	VLPFC	390.681887023151	0.84019975031211	4282.5625	-0.362204724409449	0.874711760184473	3889.10429447853	0.125	10	8	0	0	1	0	0
415.126297850553	6.00485130321886	panas_none	421.131149153772	81	5	14	n/a	n/a	n/a	n/a	n/a	n/a	n/a	n/a	n/a	n/a	n/a	n/a	n/a	n/a	n/a	n/a	enthusiastic	At this moment	3	2	7	222	NONE	n/a	0.555555555555556	3198.44101123596	-0.227920227920228	0.194465795541891	3719.6679389313	-0.930276981852913	3	1	0	1	0	0	1
422.115125184285	6.00494792024796	panas_none	428.120073104533	82	5	14	n/a	n/a	n/a	n/a	n/a	n/a	n/a	n/a	n/a	n/a	n/a	n/a	n/a	n/a	n/a	n/a	active	At this moment	3	2	7	222	NONE	n/a	0.878901373283396	3261.62886597938	4.18072289156626	0.5380476556495	3827.53577371048	-1.20666666666667	15	2	0	1	0	0	1
429.120902459467	6.00472859254012	panas_none	435.125631052007	83	5	14	n/a	n/a	n/a	n/a	n/a	n/a	n/a	n/a	n/a	n/a	n/a	n/a	n/a	n/a	n/a	n/a	scared	At this moment	5	2	7	222	NONE	n/a	0.872659176029963	3487.54901960784	-0.217821782178218	0	3474.11222136818	-0.0823076923076923	2	3	0	1	0	0	1
436.127028825372	11.5926573173832	panas_none	447.719686142756	84	5	14	n/a	n/a	n/a	n/a	n/a	n/a	n/a	n/a	n/a	n/a	n/a	n/a	n/a	n/a	n/a	n/a	n/a	n/a	n/a	2	7	222	NONE	n/a	0.536828963795256	3944.80592991914	-0.583783783783784	0.488086087624904	4267.8003003003	1.11933534743202	9	4	0	1	0	0	1
448.703633963918	2.51853759901036	reward_rtpj	451.222171562929	85	1	15	10	750	250	250	250	0	0	0	0	2000	0	BLOCKED	0.75	1	6	1	n/a	n/a	n/a	2	7	222	RTPJ	756.62875682395	0.581772784019975	3375.96417910448	1.7	0	3356.86779400461	-0.326923076923077	1	1	1	0	0	0	0
452.2063658633	2.51867688268237	reward_rtpj	454.725042745982	86	1	15	10	750	250	250	250	0	0	0	0	2000	0	BLOCKED	0.75	1	0	-1	n/a	n/a	n/a	2	7	222	RTPJ	356.231569155119	0.963795255930087	4413.68965517241	1.10714285714286	0	3806.5903151422	0.523846153846154	4	2	1	0	0	0	0
455.709091768193	2.53543958456072	reward_rtpj	458.244531352754	87	1	15	10	750	250	250	250	0	0	0	0	2000	0	BLOCKED	0.75	1	7	1	n/a	n/a	n/a	2	7	222	RTPJ	1008.36689364631	1	n/a	n/a	0.966948501152959	3357.76744186047	-2.25	12	3	1	0	0	0	0
459.245416421156	2.51870826558672	reward_rtpj	461.764124686743	88	1	15	10	750	250	250	250	0	0	0	0	2000	0	BLOCKED	0.75	-1	3	1	n/a	n/a	n/a	2	7	222	RTPJ	507.055687728338	0.958801498127341	4313	-1.96875	0	3872.98539584935	0.350769230769231	1	4	1	0	0	0	0
462.764952983826	2.51885777514985	reward_rtpj	465.283810758976	89	1	15	10	750	250	250	250	0	0	0	0	2000	0	BLOCKED	0.75	-1	1	1	n/a	n/a	n/a	2	7	222	RTPJ	373.804232037626	1	n/a	n/a	0.621829362029208	3867.81097560976	-0.0469387755102041	6	5	1	0	0	0	0
466.267663726194	2.51878866223899	reward_rtpj	468.786452388433	90	1	15	10	750	250	250	250	0	0	0	0	2000	0	BLOCKED	0.75	-1	0	1	n/a	n/a	n/a	2	7	222	RTPJ	591.157285118476	0.927590511860175	4087.24137931034	0.456140350877193	0.756341275941583	3981.33753943218	0.415873015873016	3	6	1	0	0	0	0
469.770664672266	2.53531828434859	reward_rtpj	472.305982956614	91	1	15	10	750	250	250	250	0	0	0	0	2000	0	BLOCKED	0.75	1	3	-1	n/a	n/a	n/a	2	7	222	RTPJ	774.108681462705	0.918851435705368	4114.46153846154	1.53125	0	3766.31206764028	0.309230769230769	1	7	1	0	0	0	0
473.306816895568	2.51868534548862	reward_rtpj	475.825502241056	92	1	15	10	750	250	250	250	0	0	0	0	2000	0	BLOCKED	0.75	1	7	1	n/a	n/a	n/a	2	7	222	RTPJ	439.806356906891	0.926342072409488	3981.72881355932	-0.896551724137931	0.916986933128363	3862.00925925926	0.745283018867924	6	8	1	0	0	0	0
476.826456069753	6.00475080740455	panas_none	482.831206877157	93	5	16	n/a	n/a	n/a	n/a	n/a	n/a	n/a	n/a	n/a	n/a	n/a	n/a	n/a	n/a	n/a	n/a	afraid	At this moment	2	2	7	222	NONE	n/a	0.789013732833958	3508.27810650888	0.577380952380952	0.0668716372021522	3601.75700164745	-0.632316570486397	3	1	0	1	0	1	0
483.819404789736	6.01753740119278	panas_none	489.836942190928	94	5	16	n/a	n/a	n/a	n/a	n/a	n/a	n/a	n/a	n/a	n/a	n/a	n/a	n/a	n/a	n/a	n/a	alert	At this moment	5	2	7	222	NONE	n/a	0.352059925093633	3517.64354527938	0.476833976833977	0.272098385857033	3445.83843717001	-0.480972515856237	9	2	0	1	0	1	0
490.842147168892	6.00042807690795	panas_none	496.842575245799	95	5	16	n/a	n/a	n/a	n/a	n/a	n/a	n/a	n/a	n/a	n/a	n/a	n/a	n/a	n/a	n/a	n/a	hostile	At this moment	2	2	7	222	NONE	n/a	0.724094881398252	3879.05882352941	0.495454545454545	0	3906.57417371253	-0.150769230769231	5	3	0	1	0	1	0
497.847535155023	8.8031336358078	panas_none	506.65066879083	96	5	16	n/a	n/a	n/a	n/a	n/a	n/a	n/a	n/a	n/a	n/a	n/a	n/a	n/a	n/a	n/a	n/a	n/a	n/a	n/a	2	7	222	NONE	n/a	1	n/a	n/a	0.980784012298232	3858.44	7.33333333333333	14	4	0	1	0	1	0
