onset	duration	trial_type	offset	trial	block	blockCntr	frequency	amplitude_1	amplitude_2	amplitude_3	amplitude_4	amplitude_5	amplitude_6	amplitude_7	amplitude_8	transition	sham	mode	rewardFraction	guess	outcome	correct	word	when	answer	runNr	scanNr	subjectNr	target	reactionTime	outcomeEyeClosed	outcomeParms_1	outcomeParms_2	outcomeParms_3	outcomeSigma	outcomePupilArea	guessEyeClosed	guessParms_1	guessParms_2	guessParms_3	guessSigma	guessPupilArea	nrBlinks	trialInBlock	isReward	isPanas	isPunish	beforePanasReward	beforePanasVLPFC
20.40541979599	2.55007251572609	punish_rtpj	22.9554923117161	1	3	1	10	750	250	250	250	0	0	0	0	2000	0	BLOCKED	0.25	1	2	-1	afraid	At this moment	4	2	7	237	RTPJ	888.486239284277	0.812734082397004	n/a	n/a	n/a	n/a	1441.82	0.0399692544196772	1902.23649979674	-1.23873565606271	0.000706533703702524	29.6131648684413	1444.81184947958	2	1	0	0	1	0	0
23.9627354204059	2.52888763046265	punish_rtpj	26.4916230508685	2	3	1	10	750	250	250	250	0	0	0	0	2000	0	BLOCKED	0.25	-1	9	-1	guilty	At this moment	2	2	7	237	RTPJ	351.140028864145	0.374531835205993	n/a	n/a	n/a	n/a	1994.89021956088	0.216756341275942	82.0080549862728	3.47523113339286	-0.00137790104072898	25.9576156677968	2037.63886162905	2	2	0	0	1	0	0
27.4960959993005	2.56537292611599	punish_rtpj	30.0614689254165	3	3	1	10	750	250	250	250	0	0	0	0	2000	0	BLOCKED	0.25	1	8	1	interested	At this moment	4	2	7	237	RTPJ	320.682370603085	0.401997503121099	n/a	n/a	n/a	n/a	1587.375782881	0.232129131437356	-552.454979616683	4.76826194849364	-0.00202361799654776	66.1490976494792	2022.94894894895	2	3	0	0	1	0	0
31.0673089705408	2.51399837163091	punish_rtpj	33.5813073421717	4	3	1	10	750	250	250	250	0	0	0	0	2000	0	BLOCKED	0.25	-1	10	-1	hostile	At this moment	3	2	7	237	RTPJ	375.999889999628	0.945068664169788	n/a	n/a	n/a	n/a	1384.43181818182	0	1006.45060053492	1.39763485273378	-0.000592731746261384	48.6066349884224	1683.42275172944	2	4	0	0	1	0	0
34.589452092886	2.52782343190908	punish_rtpj	37.1172755247951	5	3	1	10	750	250	250	250	0	0	0	0	2000	0	BLOCKED	0.25	1	3	-1	scared	At this moment	2	2	7	237	RTPJ	270.054306566715	0.745318352059925	n/a	n/a	n/a	n/a	1916.05392156863	0.243658724058417	1066.02373318123	1.37328009875349	-0.000507090084617576	28.3238529457996	1794.59146341463	2	5	0	0	1	0	0
38.1052749055922	2.51450331938267	punish_rtpj	40.6197782249749	6	3	1	10	750	250	250	250	0	0	0	0	2000	0	BLOCKED	0.25	-1	10	-1	enthusiastic	At this moment	1	2	7	237	RTPJ	219.013327896595	0.363295880149813	n/a	n/a	n/a	n/a	1442.43333333333	0	1112.04033512081	1.1430514592791	-0.000467347328785081	15.3394284459697	1703.02690238278	1	6	0	0	1	0	0
41.609412691474	2.56337464475632	punish_rtpj	44.1727873362303	7	3	1	10	750	250	250	250	0	0	0	0	2000	0	BLOCKED	0.25	-1	1	1	jittery	At this moment	4	2	7	237	RTPJ	303.716549396515	0.50936329588015	n/a	n/a	n/a	n/a	1442.5572519084	0.30130668716372	n/a	n/a	n/a	n/a	1526.20572057206	2	7	0	0	1	0	0
45.1568730193973	2.53541598418355	punish_rtpj	47.6922890035808	8	3	1	10	750	250	250	250	0	0	0	0	2000	0	BLOCKED	0.25	-1	8	-1	afraid	At this moment	3	2	7	237	RTPJ	249.116958528757	0.413233458177278	n/a	n/a	n/a	n/a	1536.70638297872	0.265180630284397	n/a	n/a	n/a	n/a	1601.96861924686	3	8	0	0	1	0	0
48.707372554481	6.00713979187607	panas_none	54.7145123463571	9	5	2	10	n/a	n/a	n/a	n/a	n/a	n/a	n/a	n/a	2000	0	BLOCKED	n/a	n/a	+	0	attentive	At this moment	3	2	7	237	NONE	n/a	1	n/a	n/a	n/a	n/a	n/a	1	n/a	n/a	n/a	n/a	n/a	6	1	0	1	0	0	0
55.7082251827121	6.02901016488671	panas_none	61.7372353475988	10	5	2	10	n/a	n/a	n/a	n/a	n/a	n/a	n/a	n/a	2000	0	BLOCKED	n/a	n/a	+	0	scared	At this moment	1	2	7	237	NONE	n/a	1	n/a	n/a	n/a	n/a	n/a	1	n/a	n/a	n/a	n/a	n/a	5	2	0	1	0	0	0
62.7442757014632	6.0149996279776	panas_none	68.7592753294408	11	5	2	10	n/a	n/a	n/a	n/a	n/a	n/a	n/a	n/a	2000	0	BLOCKED	n/a	n/a	+	0	interested	At this moment	2	2	7	237	NONE	n/a	0.343320848938826	n/a	n/a	n/a	n/a	1411.67680608365	0	1717.38863564258	-0.538697714249226	0.000174832024111525	26.7790336663163	1401.62951575711	3	3	0	1	0	0	0
69.764633346945	11.3880710325837	panas_none	81.1527043795288	12	5	2	10	n/a	n/a	n/a	n/a	n/a	n/a	n/a	n/a	2000	0	BLOCKED	n/a	n/a	+	0	hostile	At this moment	4	2	7	237	NONE	n/a	0.374531835205993	n/a	n/a	n/a	n/a	1820.59281437126	0.242890084550346	1207.48724206434	0.860173184703134	-0.000370818438474623	28.9156030597026	1605.66903553299	9	4	0	1	0	0	0
82.1581702978611	2.53115213769674	punish_rtpj	84.6893224355578	13	3	3	10	750	250	250	250	0	0	0	0	2000	0	BLOCKED	0.25	-1	10	-1	determined	At this moment	5	2	7	237	RTPJ	643.788984030485	0.463171036204744	n/a	n/a	n/a	n/a	1449.92790697674	0.0361260568793236	1200.91994127729	1.14721054765484	-0.000498286422460668	71.1385833750605	1756.30542264753	2	1	0	0	1	0	0
85.6960595386922	2.56247970247269	punish_rtpj	88.2585392411649	14	3	3	10	750	250	250	250	0	0	0	0	2000	0	BLOCKED	0.25	-1	8	-1	active	At this moment	1	2	7	237	RTPJ	572.896365463734	0	4819.24921443286	-3.37608325496446	0.000806901103125804	27.8152469364891	1330.37453183521	0.448116833205227	n/a	n/a	n/a	n/a	1348.14066852368	1	2	0	0	1	0	0
89.2656684545577	2.54591374912859	punish_rtpj	91.8115822036862	15	3	3	10	750	250	250	250	0	0	0	0	2000	0	BLOCKED	0.25	1	0	-1	enthusiastic	At this moment	3	2	7	237	RTPJ	351.884756237268	0.444444444444444	n/a	n/a	n/a	n/a	1610.15280898876	0.252882398155265	n/a	n/a	n/a	n/a	1505.3487654321	2	3	0	0	1	0	0
92.8122126831412	2.60230322465301	punish_rtpj	95.4145159077942	16	3	3	10	750	250	250	250	0	0	0	0	2000	0	BLOCKED	0.25	-1	6	-1	interested	At this moment	2	2	7	237	RTPJ	292.392249912024	0	1526.44570082275	0.415763663558852	-0.000169162492039664	17.7846871611883	1644.43570536829	0.275172943889316	n/a	n/a	n/a	n/a	1439.15058324496	1	4	0	0	1	0	0
96.4229790717959	2.52758118394017	punish_rtpj	98.9505602557361	17	3	3	10	750	250	250	250	0	0	0	0	2000	0	BLOCKED	0.25	1	4	-1	irritable	At this moment	2	2	7	237	RTPJ	345.477350175381	0.389513108614232	n/a	n/a	n/a	n/a	1392.92229038855	0	901.43414777959	0.84827283025076	-0.000172009570703125	35.1242150320108	1474.16910069178	2	5	0	0	1	0	0
99.95931468153	2.54434566068649	punish_rtpj	102.503660342216	18	3	3	10	750	250	250	250	0	0	0	0	2000	0	BLOCKED	0.25	1	8	1	guilty	At this moment	3	2	7	237	RTPJ	498.433498352766	0.411985018726592	n/a	n/a	n/a	n/a	1383.50530785563	0.298232129131437	n/a	n/a	n/a	n/a	1446.31544359255	2	6	0	0	1	0	0
103.492659392625	2.51367960575222	punish_rtpj	106.006338998377	19	3	3	10	750	250	250	250	0	0	0	0	2000	0	BLOCKED	0.25	-1	1	1	active	At this moment	1	2	7	237	RTPJ	193.636530011892	0.374531835205993	n/a	n/a	n/a	n/a	1493.26147704591	0.303612605687932	n/a	n/a	n/a	n/a	1526.53863134658	2	7	0	0	1	0	0
107.014861049443	2.51091156116128	punish_rtpj	109.525772610605	20	3	3	10	750	250	250	250	0	0	0	0	2000	0	BLOCKED	0.25	-1	9	-1	proud	At this moment	2	2	7	237	RTPJ	1350.33077248931	0.408239700374532	n/a	n/a	n/a	n/a	1687.87130801688	0	888.102904868662	0.894988661725937	-0.000232025527056304	22.249270195484	1455.62106072252	1	8	0	0	1	0	0
110.517367275774	6.03098094213009	panas_none	116.548348217905	21	5	4	10	n/a	n/a	n/a	n/a	n/a	n/a	n/a	n/a	2000	0	BLOCKED	n/a	n/a	+	0	enthusiastic	At this moment	2	2	7	237	NONE	n/a	0	-8682.96855720296	9.17180394136408	-0.00204587699185521	44.2466148158003	1444.30087390762	0.306687163720215	n/a	n/a	n/a	n/a	1504.55321507761	4	1	0	1	0	0	0
117.539462971121	6.06431031438709	panas_none	123.603773285508	22	5	4	10	n/a	n/a	n/a	n/a	n/a	n/a	n/a	n/a	2000	0	BLOCKED	n/a	n/a	+	0	scared	At this moment	1	2	7	237	NONE	n/a	0.401997503121099	n/a	n/a	n/a	n/a	1805.84133611691	0.229823212913144	1777.05993963265	0.600248771424801	-0.000279898478348244	72.5335312921577	2033.00399201597	6	2	0	1	0	0	0
124.595823884666	6.03070061147214	panas_none	130.626524496138	23	5	4	10	n/a	n/a	n/a	n/a	n/a	n/a	n/a	n/a	2000	0	BLOCKED	n/a	n/a	+	0	afraid	At this moment	1	2	7	237	NONE	n/a	0.0374531835205993	-2520.78442824099	3.26455429657368	-0.000680970819333615	18.7418641896644	1302.71854734112	0.265180630284397	n/a	n/a	n/a	n/a	1271.35564853556	3	3	0	1	0	0	0
131.610452559412	5.77133448311687	panas_none	137.381787042528	24	5	4	10	n/a	n/a	n/a	n/a	n/a	n/a	n/a	n/a	2000	0	BLOCKED	n/a	n/a	+	0	attentive	At this moment	5	2	7	237	NONE	n/a	1	n/a	n/a	n/a	n/a	n/a	0.866256725595696	n/a	n/a	n/a	n/a	1479.24712643678	3	4	0	1	0	0	0
138.39092370528	2.52743449518084	punish_vlpfc	140.918358200461	25	4	5	10	0	0	0	0	250	250	250	750	2000	0	BLOCKED	0.25	-1	6	-1	strong	At this moment	3	2	7	237	VLPFC	532.027333468199	0.340823970037453	n/a	n/a	n/a	n/a	1656.98863636364	0	1719.51299807917	0.0735864286423393	9.44650667308918e-05	47.1093701463578	1864.8854727133	1	1	0	0	1	0	0
141.924492680907	2.52968807134033	punish_vlpfc	144.454180752248	26	4	5	10	0	0	0	0	250	250	250	750	2000	0	BLOCKED	0.25	-1	9	-1	nervous	At this moment	5	2	7	237	VLPFC	290.379158645868	0.369538077403246	n/a	n/a	n/a	n/a	1692.55247524752	0	1170.54954873141	0.345574735961033	1.03980629702849e-05	20.1638149382577	1474.02152190623	1	2	0	0	1	0	0
145.448387957811	2.54221832150222	punish_vlpfc	147.990606279314	27	4	5	10	0	0	0	0	250	250	250	750	2000	0	BLOCKED	0.25	-1	0	1	upset	At this moment	2	2	7	237	VLPFC	413.98945042491	0.374531835205993	n/a	n/a	n/a	n/a	1313.56087824351	0	1052.87849177623	0.961903544637962	-0.00046596386289206	38.4507371060178	1468.05226748655	1	3	0	0	1	0	0
148.995750610799	2.51416586476563	punish_vlpfc	151.509916475564	28	4	5	10	0	0	0	0	250	250	250	750	2000	0	BLOCKED	0.25	-1	8	-1	afraid	At this moment	4	2	7	237	VLPFC	1048.93620699644	0.891385767790262	n/a	n/a	n/a	n/a	1627.91954022989	0	1283.73193101217	0.0146584764471661	0.000141634666198211	77.8951104615066	1419.50345887779	2	4	0	0	1	0	0
152.515453975171	2.54744022873044	punish_vlpfc	155.062894203901	29	4	5	10	0	0	0	0	250	250	250	750	2000	0	BLOCKED	0.25	-1	10	-1	jittery	At this moment	1	2	7	237	VLPFC	622.612561553717	0.789013732833958	n/a	n/a	n/a	n/a	1703.74556213018	0.297463489623367	n/a	n/a	n/a	n/a	1541.02188183807	3	5	0	0	1	0	0
156.051406995296	2.5309638401568	punish_vlpfc	158.582370835453	30	4	5	10	0	0	0	0	250	250	250	750	2000	0	BLOCKED	0.25	-1	8	-1	guilty	At this moment	2	2	7	237	VLPFC	435.617575407028	0.556803995006242	n/a	n/a	n/a	n/a	1619.25070422535	0.280553420445811	n/a	n/a	n/a	n/a	1579.75213675214	2	6	0	0	1	0	0
159.587137161344	2.54848785430192	punish_vlpfc	162.135625015646	31	4	5	10	0	0	0	0	250	250	250	750	2000	0	BLOCKED	0.25	-1	3	1	scared	At this moment	2	2	7	237	VLPFC	369.777607917786	0.524344569288389	n/a	n/a	n/a	n/a	1507.01049868766	0.341275941583397	n/a	n/a	n/a	n/a	1515.07467911319	2	7	0	0	1	0	0
163.141677688867	2.54643985393645	punish_vlpfc	165.688117542803	32	4	5	10	0	0	0	0	250	250	250	750	2000	0	BLOCKED	0.25	1	3	-1	irritable	At this moment	5	2	7	237	VLPFC	501.082358330488	0.495630461922597	n/a	n/a	n/a	n/a	1580.09653465347	0.321291314373559	n/a	n/a	n/a	n/a	1310.93657984145	2	8	0	0	1	0	0
166.693876133323	6.05002861490846	panas_none	172.743904748231	33	5	6	10	n/a	n/a	n/a	n/a	n/a	n/a	n/a	n/a	2000	0	BLOCKED	n/a	n/a	+	0	strong	At this moment	2	2	7	237	NONE	n/a	0	-2101.04549665879	3.09361028020783	-0.00066812425107733	13.099201448533	1413.66666666667	0.126825518831668	555.038517913065	1.97758851641967	-0.00112722229686256	43.8708149277947	1294.83098591549	6	1	0	1	0	0	1
173.749019107252	6.05056811910868	panas_none	179.799587226361	34	5	6	10	n/a	n/a	n/a	n/a	n/a	n/a	n/a	n/a	2000	0	BLOCKED	n/a	n/a	+	0	jittery	At this moment	1	2	7	237	NONE	n/a	0	-1697.25403685331	3.42433257844009	-0.000799013841733162	16.0281706106447	1927.12609238452	0	2224.19194373061	-0.906582591689196	0.000455313881786693	36.1494874919189	1827.65564950038	3	2	0	1	0	0	1
180.805273530394	6.05015520444513	panas_none	186.855428734839	35	5	6	10	n/a	n/a	n/a	n/a	n/a	n/a	n/a	n/a	2000	0	BLOCKED	n/a	n/a	+	0	guilty	At this moment	1	2	7	237	NONE	n/a	0.277153558052434	n/a	n/a	n/a	n/a	1533.78929188256	0.226748654880861	1583.28171274337	-0.183884003953036	0.000159449173696515	21.8814105369179	1544.09741550696	4	3	0	1	0	0	1
187.860585407913	14.4407657856941	panas_none	202.301351193607	36	5	6	10	n/a	n/a	n/a	n/a	n/a	n/a	n/a	n/a	2000	0	BLOCKED	n/a	n/a	+	0	upset	At this moment	4	2	7	237	NONE	n/a	1	n/a	n/a	n/a	n/a	n/a	0.776325903151422	n/a	n/a	n/a	n/a	1026.90378006873	7	4	0	1	0	0	1
203.309508285969	2.51147645381093	reward_vlpfc	205.82098473978	37	2	7	10	0	0	0	0	250	250	250	750	2000	0	BLOCKED	0.75	-1	6	-1	enthusiastic	At this moment	5	2	7	237	VLPFC	839.710825711489	0.378277153558052	n/a	n/a	n/a	n/a	1552.05220883534	0.16141429669485	514.615560159754	2.72548131638258	-0.00122353223502922	53.243744805321	1879.78368469294	2	1	1	0	0	0	0
206.826180200726	2.56438559815288	reward_vlpfc	209.390565798879	38	2	7	10	0	0	0	0	250	250	250	750	2000	0	BLOCKED	0.75	-1	2	1	determined	At this moment	2	2	7	237	VLPFC	333.51551887393	0.393258426966292	n/a	n/a	n/a	n/a	1393.38065843621	0.24750192159877	-265.225348599181	3.30777785192378	-0.00135795274799163	42.9224928383605	1569.34218590398	2	2	1	0	0	0	0
210.396419243425	2.53043773540855	reward_vlpfc	212.926856978834	39	2	7	10	0	0	0	0	250	250	250	750	2000	0	BLOCKED	0.75	1	8	1	inspired	At this moment	4	2	7	237	VLPFC	501.02382388711	0.876404494382023	n/a	n/a	n/a	n/a	1430.42424242424	0.392006149116065	n/a	n/a	n/a	n/a	1385.04677623262	4	3	1	0	0	0	0
213.9171864537	2.52932029169799	reward_vlpfc	216.446506745398	40	2	7	10	0	0	0	0	250	250	250	750	2000	0	BLOCKED	0.75	1	10	1	afraid	At this moment	1	2	7	237	VLPFC	685.544848173857	0	8814.64217819548	-6.47800239747813	0.0016186143694184	38.5698042113774	2404.14232209738	0.447348193697156	n/a	n/a	n/a	n/a	1661.1057023644	2	4	1	0	0	0	0
217.451718426764	2.54726004135608	reward_vlpfc	219.99897846812	41	2	7	10	0	0	0	0	250	250	250	750	2000	0	BLOCKED	0.75	-1	0	1	irritable	At this moment	1	2	7	237	VLPFC	937.90341603756	0.400749063670412	n/a	n/a	n/a	n/a	1941.47291666667	0.388931591083782	n/a	n/a	n/a	n/a	2470.5572327044	3	5	1	0	0	0	0
220.990426091969	2.54477303269505	reward_vlpfc	223.535199124664	42	2	7	10	0	0	0	0	250	250	250	750	2000	0	BLOCKED	0.75	1	10	1	hostile	At this moment	3	2	7	237	VLPFC	616.065166473389	0	9134.74907255545	-6.15182328470782	0.00142095048119615	26.2962000293294	2557.72034956305	0.853958493466564	n/a	n/a	n/a	n/a	2326.72631578947	3	6	1	0	0	0	0
224.524202406466	2.56411584600806	reward_vlpfc	227.088318252474	43	2	7	10	0	0	0	0	250	250	250	750	2000	0	BLOCKED	0.75	-1	7	-1	excited	At this moment	3	2	7	237	VLPFC	406.833790749311	0.777777777777778	n/a	n/a	n/a	n/a	2250.79775280899	0.399692544196772	n/a	n/a	n/a	n/a	2291.27528809219	3	7	1	0	0	0	0
228.094351179183	2.51339751198887	reward_vlpfc	230.607748691171	44	2	7	10	0	0	0	0	250	250	250	750	2000	0	BLOCKED	0.75	-1	4	1	attentive	At this moment	5	2	7	237	VLPFC	835.871530294418	0.378277153558052	n/a	n/a	n/a	n/a	1930.25301204819	0.338201383551115	n/a	n/a	n/a	n/a	2171.67828106852	2	8	1	0	0	0	0
231.617575778306	6.11245242753625	panas_none	237.730028205842	45	5	8	10	n/a	n/a	n/a	n/a	n/a	n/a	n/a	n/a	2000	0	BLOCKED	n/a	n/a	+	0	enthusiastic	At this moment	1	2	7	237	NONE	n/a	0.81398252184769	n/a	n/a	n/a	n/a	1583.53020134228	0	1098.60266162437	0.876819880083154	-0.00032705475734962	101.602975153259	1564.99231360492	7	1	0	1	0	1	1
238.73808162877	6.047669606179	panas_none	244.785751234949	46	5	8	10	n/a	n/a	n/a	n/a	n/a	n/a	n/a	n/a	2000	0	BLOCKED	n/a	n/a	+	0	irritable	At this moment	1	2	7	237	NONE	n/a	0.585518102372035	n/a	n/a	n/a	n/a	2035.6265060241	0	3245.54992017647	-2.0512899627644	0.000899495441721348	21.7353363630129	2279.31821675634	5	2	0	1	0	1	1
245.794726751685	6.06352221506833	panas_none	251.858248966753	47	5	8	10	n/a	n/a	n/a	n/a	n/a	n/a	n/a	n/a	2000	0	BLOCKED	n/a	n/a	+	0	strong	At this moment	2	2	7	237	NONE	n/a	0	1257.29143943166	0.468127775342985	-0.000120786388389462	18.6255145870414	1701.32833957553	0.229823212913144	1671.40821308611	0.15657176977892	-0.000115991486890854	18.8015561895543	1700.81936127745	5	3	0	1	0	1	1
252.847087928951	11.7882304860949	panas_none	264.635318415046	48	5	8	10	n/a	n/a	n/a	n/a	n/a	n/a	n/a	n/a	2000	0	BLOCKED	n/a	n/a	+	0	guilty	At this moment	3	2	7	237	NONE	n/a	1	n/a	n/a	n/a	n/a	n/a	0.863182167563413	n/a	n/a	n/a	n/a	1370.18539325843	5	4	0	1	0	1	1
265.62644198373	2.54509320902827	punish_vlpfc	268.171535192758	49	4	9	10	0	0	0	0	250	250	250	750	2000	0	BLOCKED	0.25	-1	6	-1	scared	At this moment	1	2	7	237	VLPFC	429.039502620697	0.384519350811486	n/a	n/a	n/a	n/a	2098.52129817444	0	2067.7588803412	0.825482311552002	-0.000391332629486017	52.3272184029649	2431.18447348194	3	1	0	0	1	0	0
269.162611863375	2.51184247040749	punish_vlpfc	271.674454333782	50	4	9	10	0	0	0	0	250	250	250	750	2000	0	BLOCKED	0.25	1	0	-1	hostile	At this moment	2	2	7	237	VLPFC	683.398820191622	1	n/a	n/a	n/a	n/a	n/a	1	n/a	n/a	n/a	n/a	n/a	6	2	0	0	1	0	0
272.676741408557	2.55066455990072	punish_vlpfc	275.227405968457	51	4	9	10	0	0	0	0	250	250	250	750	2000	0	BLOCKED	0.25	-1	4	1	ashamed	At this moment	4	2	7	237	VLPFC	1233.61661419272	0.583021223470662	n/a	n/a	n/a	n/a	2118.33832335329	0.282090699461952	n/a	n/a	n/a	n/a	2364.08993576017	2	3	0	0	1	0	0
276.232172294378	2.54826923164723	punish_vlpfc	278.780441526026	52	4	9	10	0	0	0	0	250	250	250	750	2000	0	BLOCKED	0.25	-1	8	-1	determined	At this moment	5	2	7	237	VLPFC	378.633234798908	0.450686641697878	n/a	n/a	n/a	n/a	1825.83409090909	0.230591852421214	1594.29638480421	0.213126475362943	5.44617354238794e-05	40.495330774573	1815.51148851149	3	4	0	0	1	0	0
279.788678309858	2.51099160522222	punish_vlpfc	282.29966991508	53	4	9	10	0	0	0	0	250	250	250	750	2000	0	BLOCKED	0.25	1	8	1	interested	At this moment	1	2	7	237	VLPFC	400.57977309823	0.374531835205993	n/a	n/a	n/a	n/a	1591.21556886228	0.26902382782475	n/a	n/a	n/a	n/a	1673.09358569926	2	5	0	0	1	0	0
283.304252174824	2.51526391455531	punish_vlpfc	285.81951608938	54	4	9	10	0	0	0	0	250	250	250	750	2000	0	BLOCKED	0.25	-1	10	-1	strong	At this moment	2	2	7	237	VLPFC	469.76184591651	0	6078.55304014639	-4.41546842458763	0.00107885693496927	19.6058738833268	1621.69912609238	0.578785549577248	n/a	n/a	n/a	n/a	1514.02554744526	3	6	0	0	1	0	0
286.824808167458	2.5306383745372	punish_vlpfc	289.355446541995	55	4	9	10	0	0	0	0	250	250	250	750	2000	0	BLOCKED	0.25	1	4	-1	distressed	At this moment	2	2	7	237	VLPFC	401.488820075989	0.530586766541823	n/a	n/a	n/a	n/a	1371.5	0.289777094542659	n/a	n/a	n/a	n/a	1790.94913419913	3	7	0	0	1	0	0
290.347674507558	2.52741792219877	punish_vlpfc	292.875092429757	56	4	9	10	0	0	0	0	250	250	250	750	2000	0	BLOCKED	0.25	-1	9	-1	alert	At this moment	4	2	7	237	VLPFC	318.170678704977	0.660424469413233	n/a	n/a	n/a	n/a	1591.63970588235	0.530361260568793	n/a	n/a	n/a	n/a	1460.66939443535	3	8	0	0	1	0	0
293.889389291793	6.00782210606337	panas_none	299.897211397856	57	5	10	10	n/a	n/a	n/a	n/a	n/a	n/a	n/a	n/a	2000	0	BLOCKED	n/a	n/a	+	0	enthusiastic	At this moment	2	2	7	237	NONE	n/a	0.416978776529338	n/a	n/a	n/a	n/a	1123.47109207709	0.000768639508070715	1047.31473322228	0.645620524973424	-0.000476667468030175	50.2663057727453	1184.86923076923	3	1	0	1	0	0	1
300.887266536593	6.04896265327932	panas_none	306.936229189873	58	5	10	10	n/a	n/a	n/a	n/a	n/a	n/a	n/a	n/a	2000	0	BLOCKED	n/a	n/a	+	0	proud	At this moment	3	2	7	237	NONE	n/a	0	1742.97325296283	-0.0922355408610887	-1.13235178243965e-05	19.8633390804898	1500	0.61260568793236	n/a	n/a	n/a	n/a	1617.20833333333	9	2	0	1	0	0	1
307.9284423455	6.0469678981006	panas_none	313.975410243601	59	5	10	10	n/a	n/a	n/a	n/a	n/a	n/a	n/a	n/a	2000	0	BLOCKED	n/a	n/a	+	0	nervous	At this moment	1	2	7	237	NONE	n/a	0	204.211593862463	1.14691552422233	-0.000265246640083309	13.3820592401673	1428.50312109863	0	1493.00780565242	-0.29673187707716	9.30455820226674e-05	19.9829557172865	1324.91006917756	2	3	0	1	0	0	1
314.981139566928	14.4234459369183	panas_none	329.404585503846	60	5	10	10	n/a	n/a	n/a	n/a	n/a	n/a	n/a	n/a	2000	0	BLOCKED	n/a	n/a	+	0	guilty	At this moment	2	2	7	237	NONE	n/a	0.621722846441948	n/a	n/a	n/a	n/a	1723.66666666667	0.817832436587241	n/a	n/a	n/a	n/a	1248.79324894515	11	4	0	1	0	0	1
330.41088818261	2.59667263412473	reward_vlpfc	333.007560816735	61	2	11	10	0	0	0	0	250	250	250	750	2000	0	BLOCKED	0.75	-1	3	1	ashamed	At this moment	1	2	7	237	VLPFC	894.75154069066	0.958801498127341	n/a	n/a	n/a	n/a	1922.09090909091	0.194465795541891	374.5662330416	3.07276109708019	-0.00141776683612299	59.631606164242	1890.17270992366	3	1	1	0	0	0	0
333.997791911453	2.51279806286095	reward_vlpfc	336.510589974314	62	2	11	10	0	0	0	0	250	250	250	750	2000	0	BLOCKED	0.75	-1	1	1	upset	At this moment	5	2	7	237	VLPFC	396.121634572744	0.885143570536829	n/a	n/a	n/a	n/a	2182.40217391304	0.900845503458878	n/a	n/a	n/a	n/a	2036.13178294574	3	2	1	0	0	0	0
337.502966039091	2.54376490026715	reward_vlpfc	340.046730939358	63	2	11	10	0	0	0	0	250	250	250	750	2000	0	BLOCKED	0.75	1	10	1	scared	At this moment	4	2	7	237	VLPFC	322.971561074257	0.374531835205993	n/a	n/a	n/a	n/a	1379.85229540918	0	1407.6661630516	-0.321421237018224	0.000378935706353617	27.3650312534739	1460.78324365872	1	3	1	0	0	0	0
341.054611932486	2.5114898532629	reward_vlpfc	343.566101785749	64	2	11	10	0	0	0	0	250	250	250	750	2000	0	BLOCKED	0.75	-1	6	-1	attentive	At this moment	3	2	7	237	VLPFC	602.713318377733	0.374531835205993	n/a	n/a	n/a	n/a	1441.12974051896	0.36510376633359	n/a	n/a	n/a	n/a	1470.15859564165	2	4	1	0	0	0	0
344.555111414671	2.51389364433288	reward_vlpfc	347.069005059004	65	2	11	10	0	0	0	0	250	250	250	750	2000	0	BLOCKED	0.75	1	4	-1	proud	At this moment	4	2	7	237	VLPFC	405.897239595652	0.85143570536829	n/a	n/a	n/a	n/a	1100.94957983193	0.293620292083013	n/a	n/a	n/a	n/a	1377.56800870511	8	5	1	0	0	0	0
348.069813610077	2.51886625128986	reward_vlpfc	350.588679861367	66	2	11	10	0	0	0	0	250	250	250	750	2000	0	BLOCKED	0.75	-1	0	1	alert	At this moment	2	2	7	237	VLPFC	356.634156554937	0.052434456928839	6786.86815470937	-5.15987906679475	0.0012031493720127	15.8357873696256	1317.19235836627	0.784012298232129	n/a	n/a	n/a	n/a	1442.37366548043	3	6	1	0	0	0	0
351.598331345171	2.54307341805099	reward_vlpfc	354.141404763222	67	2	11	10	0	0	0	0	250	250	250	750	2000	0	BLOCKED	0.75	1	10	1	determined	At this moment	2	2	7	237	VLPFC	614.691722691059	0.409488139825218	n/a	n/a	n/a	n/a	1277.31923890063	0	810.148844457261	1.55691803461965	-0.000717808799892498	20.3024637409263	1539.9900076864	1	7	1	0	0	0	0
355.129676717073	2.51494021198158	reward_vlpfc	357.644616929054	68	2	11	10	0	0	0	0	250	250	250	750	2000	0	BLOCKED	0.75	-1	4	1	upset	At this moment	2	2	7	237	VLPFC	635.890712678432	0	13675.7831109991	-11.3240039974814	0.00265651380217592	17.892501334079	1744.9088639201	0.282859338970023	n/a	n/a	n/a	n/a	1741.09967845659	2	8	1	0	0	0	0
358.650069800556	6.04997642755512	panas_none	364.700046228111	69	5	12	10	n/a	n/a	n/a	n/a	n/a	n/a	n/a	n/a	2000	0	BLOCKED	n/a	n/a	+	0	attentive	At this moment	3	2	7	237	NONE	n/a	0	-86.5892572271029	1.80085863648998	-0.000394988578240461	20.8652472965079	1933.29712858926	0.0415065334358186	230.739944335357	3.71061607912421	-0.00188773255533696	29.3385262909493	1796.23576583801	4	1	0	1	0	1	1
365.691208584666	6.01439171603323	panas_none	371.705600300699	70	5	12	10	n/a	n/a	n/a	n/a	n/a	n/a	n/a	n/a	2000	0	BLOCKED	n/a	n/a	+	0	enthusiastic	At this moment	2	2	7	237	NONE	n/a	0	905.036607240364	0.172907017478309	4.19864207520848e-05	24.0749562363687	1455.76154806492	0.12913143735588	1758.23098444704	-0.569374434753122	0.000225759442137282	49.8983903908792	1391.05119152692	4	2	0	1	0	1	1
372.694877213418	6.04982832834128	panas_none	378.74470554176	71	5	12	10	n/a	n/a	n/a	n/a	n/a	n/a	n/a	n/a	2000	0	BLOCKED	n/a	n/a	+	0	inspired	At this moment	1	2	7	237	NONE	n/a	0.0449438202247191	1705.79405440471	-0.492321799173079	0.000151489941109958	11.3355298902589	1344.89673202614	0	1399.89160773115	-0.0721115520973378	-2.27392285062984e-05	19.4122871722738	1319.33973866257	2	3	0	1	0	1	1
379.730071225136	12.1252799339294	panas_none	391.855351159066	72	5	12	10	n/a	n/a	n/a	n/a	n/a	n/a	n/a	n/a	2000	0	BLOCKED	n/a	n/a	+	0	excited	At this moment	4	2	7	237	NONE	n/a	0.116104868913858	10148.8340192192	-8.14162838328998	0.00189898143247541	45.1839581457568	1512.95621468927	0.777863182167563	n/a	n/a	n/a	n/a	1033.74740484429	6	4	0	1	0	1	1
392.860738796383	2.53087004399299	reward_rtpj	395.391608840376	73	1	13	10	750	250	250	250	0	0	0	0	2000	0	BLOCKED	0.75	-1	1	1	alert	At this moment	3	2	7	237	RTPJ	602.79724124074	0.367041198501873	n/a	n/a	n/a	n/a	1240.95660749507	0.135280553420446	319.212952671289	2.71147896551761	-0.00135425526075615	100.39530098227	1527.65066666667	2	1	1	0	0	0	0
396.400081877679	2.51106565484406	reward_rtpj	398.911147532523	74	1	13	10	750	250	250	250	0	0	0	0	2000	0	BLOCKED	0.75	1	8	1	upset	At this moment	3	2	7	237	RTPJ	282.846198648214	0	10046.0355998804	-7.45919378419657	0.00161529205162746	14.8892736128282	1575.49313358302	0	1116.17574969586	0.403835162549831	-5.81884487304933e-06	66.9419874968351	1452.29054573405	0	2	1	0	0	0	0
399.915662795037	2.5817858436406	reward_rtpj	402.497448638678	75	1	13	10	750	250	250	250	0	0	0	0	2000	0	BLOCKED	0.75	-1	4	1	irritable	At this moment	5	2	7	237	RTPJ	590.35373494029	0	8824.01343078107	-6.72179184358302	0.00150660244120361	33.915604132655	1432.72034956305	0.230591852421214	1143.61441249091	0.794008365848515	-0.000286604157681032	35.6306721259075	1579.67932067932	1	3	1	0	0	0	0
403.485469529122	2.56482813262943	reward_rtpj	406.050297661752	76	1	13	10	750	250	250	250	0	0	0	0	2000	0	BLOCKED	0.75	1	2	-1	active	At this moment	2	2	7	237	RTPJ	735.894344598055	0	1306.84036069325	0.770521443978283	-0.00030684527444065	27.2932434916154	1555.94756554307	0.243658724058417	1088.32803296061	0.943932947870898	-0.000325686997528278	48.0923912536506	1630.14532520325	1	4	1	0	0	0	0
407.039364062011	2.54719057583804	reward_rtpj	409.586554637849	77	1	13	10	750	250	250	250	0	0	0	0	2000	0	BLOCKED	0.75	-1	2	1	ashamed	At this moment	3	2	7	237	RTPJ	375.039713531733	0.31960049937578	n/a	n/a	n/a	n/a	1263.64036697248	0	872.657683799517	1.0359712866817	-0.000440080990899865	36.6302589283565	1373.86471944658	1	5	1	0	0	0	0
410.575253258437	2.53085276576877	reward_rtpj	413.106106024206	78	1	13	10	750	250	250	250	0	0	0	0	2000	0	BLOCKED	0.75	-1	9	-1	scared	At this moment	5	2	7	237	RTPJ	568.699868857861	0.374531835205993	n/a	n/a	n/a	n/a	1812.70658682635	0	1233.10432331831	1.04552900513253	-0.00041799158248742	49.4608067841645	1761.67947732513	1	6	1	0	0	0	0
414.09492171371	2.51396980962159	reward_rtpj	416.608891523331	79	1	13	10	750	250	250	250	0	0	0	0	2000	0	BLOCKED	0.75	1	6	1	guilty	At this moment	2	2	7	237	RTPJ	535.443840950727	0.374531835205993	n/a	n/a	n/a	n/a	1471.46107784431	0.230591852421214	1053.74980538502	1.15128652962229	-0.000402172956880017	45.7565314458241	1709.76123876124	2	7	1	0	0	0	0
417.597288656265	2.531278727293	reward_rtpj	420.128567383558	80	1	13	10	750	250	250	250	0	0	0	0	2000	0	BLOCKED	0.75	-1	4	1	inspired	At this moment	2	2	7	237	RTPJ	752.793521136045	0.374531835205993	n/a	n/a	n/a	n/a	1421.02395209581	0.230591852421214	1030.68064222959	0.979363955037327	-0.000462652162064831	38.1486369634088	1496.9010989011	3	8	1	0	0	0	0
421.137323219806	6.03018825876711	panas_none	427.167511478573	81	5	14	10	n/a	n/a	n/a	n/a	n/a	n/a	n/a	n/a	2000	0	BLOCKED	n/a	n/a	+	0	interested	At this moment	2	2	7	237	NONE	n/a	0.305867665418227	n/a	n/a	n/a	n/a	1117.32194244604	0.0192159877017679	1047.02492237463	0.272266844681534	-0.000232700128202521	23.9404074288067	1063.42006269592	2	1	0	1	0	1	0
428.175148813248	6.01479687312246	panas_none	434.18994568637	82	5	14	10	n/a	n/a	n/a	n/a	n/a	n/a	n/a	n/a	2000	0	BLOCKED	n/a	n/a	+	0	distressed	At this moment	1	2	7	237	NONE	n/a	0	-6222.60486491643	7.0586879218789	-0.00161828446639161	39.0869012836664	1376.00124843945	0.0868562644119908	1223.23277688738	0.208068438040805	-0.000119804050028668	17.4683188894338	1298.74915824916	3	2	0	1	0	1	0
435.179216957212	6.04984948536753	panas_none	441.229066442579	83	5	14	10	n/a	n/a	n/a	n/a	n/a	n/a	n/a	n/a	2000	0	BLOCKED	n/a	n/a	+	0	upset	At this moment	1	2	7	237	NONE	n/a	0	62.2636796096235	1.53378373943021	-0.000435069967322412	14.3125824841056	1340.91260923845	0.229823212913144	1540.61700204549	-0.508272345014951	0.000420713916664129	23.1285377281271	1461.70558882236	3	3	0	1	0	1	0
442.23651442185	6.91551258015636	panas_none	449.152027002007	84	5	14	10	n/a	n/a	n/a	n/a	n/a	n/a	n/a	n/a	2000	0	BLOCKED	n/a	n/a	+	0	nervous	At this moment	4	2	7	237	NONE	n/a	1	n/a	n/a	n/a	n/a	n/a	0.890853189853958	n/a	n/a	n/a	n/a	1256.98591549296	6	4	0	1	0	1	0
450.139868410349	2.53173571908474	reward_rtpj	452.671604129434	85	1	15	10	750	250	250	250	0	0	0	0	2000	0	BLOCKED	0.75	1	6	1	jittery	At this moment	1	2	7	237	RTPJ	572.893897116184	0.383270911360799	n/a	n/a	n/a	n/a	1233.58704453441	0.12913143735588	918.866103541693	1.49608576364198	-0.000712300193213644	16.9022687266972	1614.53662842012	2	1	1	0	0	0	0
453.676389496654	2.53121314051748	reward_rtpj	456.207602637172	86	1	15	10	750	250	250	250	0	0	0	0	2000	0	BLOCKED	0.75	1	9	1	determined	At this moment	5	2	7	237	RTPJ	70.1859738230705	0.374531835205993	n/a	n/a	n/a	n/a	1300.62874251497	0.231360491929285	855.612491585438	0.77727393817072	-0.000259966217211816	50.0963347660295	1301.26	3	2	1	0	0	0	0
457.213308335125	2.51431184825304	reward_rtpj	459.727620183378	87	1	15	10	750	250	250	250	0	0	0	0	2000	0	BLOCKED	0.75	-1	1	1	active	At this moment	1	2	7	237	RTPJ	319.161885470152	0.374531835205993	n/a	n/a	n/a	n/a	1336.12774451098	0.230591852421214	1026.49112947376	0.646512750518469	-0.000252234696157827	52.2202155558187	1376.18381618382	2	3	1	0	0	0	0
460.715722528368	2.53129882645607	reward_rtpj	463.247021354824	88	1	15	10	750	250	250	250	0	0	0	0	2000	0	BLOCKED	0.75	1	4	-1	enthusiastic	At this moment	3	2	7	237	RTPJ	273.612918794155	0.337078651685393	n/a	n/a	n/a	n/a	1566.64595103578	0	1062.54693368149	0.425973291983228	-1.90656842259667e-05	42.0540437210794	1411.64565718678	1	4	1	0	0	0	0
464.23475204137	2.51489014038441	reward_rtpj	466.749642181754	89	1	15	10	750	250	250	250	0	0	0	0	2000	0	BLOCKED	0.75	-1	2	1	guilty	At this moment	1	2	7	237	RTPJ	430.887216478586	0.32334581772784	n/a	n/a	n/a	n/a	1365.02767527675	0	1204.14230217677	0.549589676815597	-0.000162197185177083	17.6406751500521	1530.96003074558	1	5	1	0	0	0	0
467.755875042349	2.51367502170802	reward_rtpj	470.269550064057	90	1	15	10	750	250	250	250	0	0	0	0	2000	0	BLOCKED	0.75	1	2	-1	strong	At this moment	1	2	7	237	RTPJ	694.204419910908	0.784019975031211	n/a	n/a	n/a	n/a	1776.7225433526	0.230591852421214	1296.69880236435	0.472325210181341	-0.000129361680366879	30.1529446414789	1596.04495504496	2	6	1	0	0	0	0
471.26081996882	2.57794090631603	reward_rtpj	473.838760875136	91	1	15	10	750	250	250	250	0	0	0	0	2000	0	BLOCKED	0.75	-1	2	1	attentive	At this moment	2	2	7	237	RTPJ	336.746902376413	0.116104868913858	10279.3144010633	-7.75286273013025	0.00171837243281655	28.1199763636181	1665.05084745763	0.230591852421214	1219.88168434797	0.616674630475595	-0.000183087417239613	33.1550703875115	1551.23676323676	2	7	1	0	0	0	0
474.826224983126	2.53205765855313	reward_rtpj	477.358282641679	92	1	15	10	750	250	250	250	0	0	0	0	2000	0	BLOCKED	0.75	1	7	1	hostile	At this moment	5	2	7	237	RTPJ	437.000892460346	0.374531835205993	n/a	n/a	n/a	n/a	1406.624750499	0	1214.44691259709	0.275430422554164	-9.79596109313965e-06	23.2617976628943	1441.09146810146	1	8	1	0	0	0	0
478.365821243554	6.09859069508315	panas_none	484.464411938638	93	5	16	10	n/a	n/a	n/a	n/a	n/a	n/a	n/a	n/a	2000	0	BLOCKED	n/a	n/a	+	0	ashamed	At this moment	1	2	7	237	NONE	n/a	0	-536.421704594719	1.68320355303852	-0.00040299102835071	30.1315128581694	1199.35580524345	0.225211375864719	978.21039394027	0.424205508793662	-9.25771470672457e-05	46.5753095705727	1222.2371031746	2	1	0	1	0	1	0
485.471300314516	6.04841997545958	panas_none	491.519720289975	94	5	16	10	n/a	n/a	n/a	n/a	n/a	n/a	n/a	n/a	2000	0	BLOCKED	n/a	n/a	+	0	inspired	At this moment	2	2	7	237	NONE	n/a	0.017478152309613	-570.598265627251	1.7925417519491	-0.000447315262019915	22.4609990359482	1198.90343074968	0.123750960799385	1179.87847426956	-0.114770844061759	3.88399750050385e-05	11.8569782544305	1118.86578947368	3	2	0	1	0	1	0
492.526219376504	6.03250001677873	panas_none	498.558719393283	95	5	16	10	n/a	n/a	n/a	n/a	n/a	n/a	n/a	n/a	2000	0	BLOCKED	n/a	n/a	+	0	distressed	At this moment	1	2	7	237	NONE	n/a	0.383270911360799	n/a	n/a	n/a	n/a	1250.4008097166	0.229823212913144	989.043874523399	0.722905437881256	-0.000448427697359734	15.6074459334744	1237.96007984032	3	3	0	1	0	1	0
499.547773451924	11.1375686413348	panas_none	510.685342093259	96	5	16	10	n/a	n/a	n/a	n/a	n/a	n/a	n/a	n/a	2000	0	BLOCKED	n/a	n/a	+	0	determined	At this moment	1	2	7	237	NONE	n/a	1	n/a	n/a	n/a	n/a	n/a	0.867794004611837	n/a	n/a	n/a	n/a	1383.62209302326	10	4	0	1	0	1	0
