onset	duration	trial_type	offset	trial	block	blockCntr	frequency	amplitude_1	amplitude_2	amplitude_3	amplitude_4	amplitude_5	amplitude_6	amplitude_7	amplitude_8	transition	sham	mode	rewardFraction	guess	outcome	correct	word	when	answer	runNr	scanNr	subjectNr	target	reactionTime	outcomeEyeClosed	outcomeParms_1	outcomeParms_2	outcomeParms_3	outcomeSigma	outcomePupilArea	guessEyeClosed	guessParms_1	guessParms_2	guessParms_3	guessSigma	guessPupilArea	nrBlinks	trialInBlock	isReward	isPanas	isPunish	beforePanasReward	beforePanasVLPFC
20.4357388757467	2.57760556736589	reward_rtpj	23.0133444431126	1	1	1	10	750	250	250	250	0	0	0	0	2000	0	BLOCKED	0.75	1	2	-1	scared	At this moment	4	3	11	237	RTPJ	805.291866481304	0.466916354556804	n/a	n/a	n/a	n/a	1856.90632318501	0.06456571867794	2307.61123999667	-1.08587930389871	0.0005987336029794	27.1984630855495	1889.17173377157	4	1	1	0	0	0	0
24.0192296232283	2.53021558660269	reward_rtpj	26.549445209831	2	1	1	10	750	250	250	250	0	0	0	0	2000	0	BLOCKED	0.75	-1	1	1	ashamed	At this moment	2	3	11	237	RTPJ	597.829923599958	0.756554307116105	n/a	n/a	n/a	n/a	1544.41538461538	0.231360491929285	1151.65160411172	0.191648461796177	0.000250909588142774	41.1653594006218	1520.838	2	2	1	0	0	0	0
27.5392848994732	2.52961790058017	reward_rtpj	30.0689028000534	3	1	1	10	750	250	250	250	0	0	0	0	2000	0	BLOCKED	0.75	1	8	1	afraid	At this moment	1	3	11	237	RTPJ	557.688693374395	0	9051.68565492666	-6.57129744899899	0.00139147941839596	30.0738940686374	1462.50811485643	0.271329746348962	n/a	n/a	n/a	n/a	1717.32594936709	1	3	1	0	0	0	0
31.0775937547088	2.54414854776859	reward_rtpj	33.6217423024774	4	1	1	10	750	250	250	250	0	0	0	0	2000	0	BLOCKED	0.75	-1	4	1	excited	At this moment	2	3	11	237	RTPJ	917.954453885555	0.35705368289638	n/a	n/a	n/a	n/a	1391.08349514563	0	1157.46667700748	0.419969068638123	0.000170359029598032	32.8186235720193	1643.82321291314	2	4	1	0	0	0	0
34.6114832593501	2.52990105208755	reward_rtpj	37.1413843114376	5	1	1	10	750	250	250	250	0	0	0	0	2000	0	BLOCKED	0.75	1	7	1	interested	At this moment	1	3	11	237	RTPJ	342.561911642551	0.378277153558052	n/a	n/a	n/a	n/a	1188.00401606426	0	900.765754420478	0.948388493525373	-0.000314291987477989	55.3794728271179	1437.22598001537	2	5	1	0	0	0	0
38.1480628800988	2.51313551747799	reward_rtpj	40.6611983975768	6	1	1	10	750	250	250	250	0	0	0	0	2000	0	BLOCKED	0.75	1	8	1	guilty	At this moment	1	3	11	237	RTPJ	272.924257487059	0	8463.6551923798	-6.11928538821978	0.00129598279585083	34.602329016059	1397.49313358302	0.398923904688701	n/a	n/a	n/a	n/a	1277.65345268542	2	6	1	0	0	0	0
41.6508187593818	2.54628540760279	reward_rtpj	44.1971041669846	7	1	1	10	750	250	250	250	0	0	0	0	2000	0	BLOCKED	0.75	1	4	-1	scared	At this moment	4	3	11	237	RTPJ	224.070562928915	0	3074.32926652889	-1.26322529466487	0.000198391784535093	28.2415365115661	1306.76654182272	0.230591852421214	901.300004592183	0.273571355240293	4.43644703194052e-05	24.5842285011851	1192.27772227772	1	7	1	0	0	0	0
45.2031014793515	2.53031290891767	reward_rtpj	47.7334143882692	8	1	1	10	750	250	250	250	0	0	0	0	2000	0	BLOCKED	0.75	1	10	1	jittery	At this moment	2	3	11	237	RTPJ	313.962193071842	0.374531835205993	n/a	n/a	n/a	n/a	1425.21956087824	0	450.042408023825	1.39453701730968	-0.000410661418279219	20.5662503466896	1300.53727901614	2	8	1	0	0	0	0
48.742337365061	6.03000877663493	panas_none	54.772346141696	9	5	2	10	n/a	n/a	n/a	n/a	n/a	n/a	n/a	n/a	2000	0	BLOCKED	n/a	n/a	+	0	alert	At this moment	3	3	11	237	NONE	n/a	0.378277153558052	n/a	n/a	n/a	n/a	1284.23694779116	0.156033820138355	120.933899921101	2.54220267821684	-0.00131316043998956	60.5664483830971	1219.92714025501	5	1	0	1	0	1	0
55.7613049937487	6.08350361800193	panas_none	61.8448086117506	10	5	2	10	n/a	n/a	n/a	n/a	n/a	n/a	n/a	n/a	2000	0	BLOCKED	n/a	n/a	+	0	attentive	At this moment	3	3	11	237	NONE	n/a	0	-3100.00031580479	4.08397519865488	-0.000911954834239289	14.2706152990914	1405.99875156055	0	1600.89093935466	-0.949409304577128	0.000473751944984404	16.5043515667039	1202.88239815527	4	2	0	1	0	1	0
62.8516271694303	6.01563645455241	panas_none	68.8672636239827	11	5	2	10	n/a	n/a	n/a	n/a	n/a	n/a	n/a	n/a	2000	0	BLOCKED	n/a	n/a	+	0	inspired	At this moment	1	3	11	237	NONE	n/a	0.136079900124844	1816.3152128021	-0.933507020865963	0.000306072681401797	12.0291187185362	1199.63728323699	0.182167563412759	1860.19030068728	-1.06644447192815	0.000426116396318537	17.1130622889657	1200.40977443609	4	3	0	1	0	1	0
69.8724686056078	8.08550189939142	panas_none	77.9579705049992	12	5	2	10	n/a	n/a	n/a	n/a	n/a	n/a	n/a	n/a	2000	0	BLOCKED	n/a	n/a	+	0	irritable	At this moment	1	3	11	237	NONE	n/a	0	5774.73938592234	-4.19013480531197	0.00102115963699162	17.8218010776108	1533.64419475655	0.631053036126057	n/a	n/a	n/a	n/a	1272.22083333333	7	4	0	1	0	1	0
78.9474928392172	2.52995958656072	reward_vlpfc	81.4774524257779	13	2	3	10	0	0	0	0	250	250	250	750	2000	0	BLOCKED	0.75	-1	1	1	afraid	At this moment	2	3	11	237	VLPFC	669.762057483196	0.373283395755306	n/a	n/a	n/a	n/a	1376.67928286853	0.230591852421214	1454.31087779133	0.547303618575733	-0.000243228959131005	47.8362232205	1653.000999001	2	1	1	0	0	0	0
82.4831507188082	2.54710065841675	reward_vlpfc	85.0302513772249	14	2	3	10	0	0	0	0	250	250	250	750	2000	0	BLOCKED	0.75	1	4	-1	determined	At this moment	5	3	11	237	VLPFC	586.336015224457	0.109862671660424	-17184.0013638427	18.1101085453947	-0.00425167568235536	73.3048261738256	1920.14446002805	0.389700230591852	n/a	n/a	n/a	n/a	1809.37783375315	2	2	1	0	0	0	0
86.0358213176131	2.54735207447409	reward_vlpfc	88.5831733920872	15	2	3	10	0	0	0	0	250	250	250	750	2000	0	BLOCKED	0.75	1	10	1	scared	At this moment	5	3	11	237	VLPFC	624.689476549625	0.410736579275905	n/a	n/a	n/a	n/a	1224.32838983051	0.80630284396618	n/a	n/a	n/a	n/a	1754.50793650794	3	3	1	0	0	0	0
89.589904148072	2.5128960904479	reward_vlpfc	92.1028002385199	16	2	3	10	0	0	0	0	250	250	250	750	2000	0	BLOCKED	0.75	-1	0	1	active	At this moment	3	3	11	237	VLPFC	471.129295200109	0.469413233458177	n/a	n/a	n/a	n/a	1338.12235294118	0.395080707148347	n/a	n/a	n/a	n/a	1527.3710292249	2	4	1	0	0	0	0
93.0931833111942	2.53181858414412	reward_vlpfc	95.6250018953383	17	2	3	10	0	0	0	0	250	250	250	750	2000	0	BLOCKED	0.75	1	10	1	guilty	At this moment	1	3	11	237	VLPFC	327.894096374512	0.347066167290886	n/a	n/a	n/a	n/a	1176.76481835564	0	841.455698537416	1.06398684822187	-0.000406383885147476	32.662093746529	1395.31206764028	2	5	1	0	0	0	0
96.6300422047675	2.52848917305469	reward_vlpfc	99.1585313778222	18	2	3	10	0	0	0	0	250	250	250	750	2000	0	BLOCKED	0.75	-1	2	1	strong	At this moment	3	3	11	237	VLPFC	400.337525099516	0.375780274656679	n/a	n/a	n/a	n/a	1396.142	0.230591852421214	1003.10770986798	0.548485623696288	-0.000107392036683644	49.1589224920433	1332.48051948052	2	6	1	0	0	0	0
100.147738824964	2.53039577394723	reward_vlpfc	102.678134598911	19	2	3	10	0	0	0	0	250	250	250	750	2000	0	BLOCKED	0.75	1	1	-1	enthusiastic	At this moment	4	3	11	237	VLPFC	573.495109349489	0.445692883895131	n/a	n/a	n/a	n/a	1233.3963963964	0.239046887009992	1131.6284473759	-0.115250316258244	0.000227460993154359	33.8452658623286	1221.85353535354	2	7	1	0	0	0	0
103.68301199922	2.5645322868526	reward_vlpfc	106.247544286072	20	2	3	10	0	0	0	0	250	250	250	750	2000	0	BLOCKED	0.75	-1	1	1	proud	At this moment	4	3	11	237	VLPFC	496.38726106286	0.32334581772784	n/a	n/a	n/a	n/a	1382.59594095941	0	1113.22138340177	0.235993753702898	2.22515927492415e-07	17.8055008749269	1313.38893159108	1	8	1	0	0	0	0
107.252847647876	6.00032440778614	panas_none	113.253172055662	21	5	4	10	n/a	n/a	n/a	n/a	n/a	n/a	n/a	n/a	2000	0	BLOCKED	n/a	n/a	+	0	guilty	At this moment	1	3	11	237	NONE	n/a	0.47565543071161	n/a	n/a	n/a	n/a	1041.71428571429	0.2152190622598	-21.8478480436306	2.88289041234295	-0.00150914012520397	48.4601333389165	1221.2291870715	5	1	0	1	0	1	1
114.258637268752	6.03366118499638	panas_none	120.292298453748	22	5	4	10	n/a	n/a	n/a	n/a	n/a	n/a	n/a	n/a	2000	0	BLOCKED	n/a	n/a	+	0	upset	At this moment	1	3	11	237	NONE	n/a	0.886392009987516	n/a	n/a	n/a	n/a	1110.23076923077	0	1091.53760641522	0.0472180163506645	-5.6121739484593e-05	15.2333178415693	1083.44427363566	4	2	0	1	0	1	1
121.298218190312	6.01644006901979	panas_none	127.314658259332	23	5	4	10	n/a	n/a	n/a	n/a	n/a	n/a	n/a	n/a	2000	0	BLOCKED	n/a	n/a	+	0	hostile	At this moment	1	3	11	237	NONE	n/a	0	4460.97244275521	-3.14717664354032	0.00071766806043002	14.2550647430895	1055.01123595506	0.348193697156034	n/a	n/a	n/a	n/a	974.010613207547	5	3	0	1	0	1	1
128.306849905342	14.0369338246882	panas_none	142.34378373003	24	5	4	10	n/a	n/a	n/a	n/a	n/a	n/a	n/a	n/a	2000	0	BLOCKED	n/a	n/a	+	0	excited	At this moment	4	3	11	237	NONE	n/a	1	n/a	n/a	n/a	n/a	n/a	0.381245196003075	n/a	n/a	n/a	n/a	1392.02732919255	5	4	0	1	0	1	1
143.332382559985	2.51409287300706	punish_vlpfc	145.846475432992	25	4	5	10	0	0	0	0	250	250	250	750	2000	0	BLOCKED	0.25	-1	1	1	scared	At this moment	2	3	11	237	VLPFC	794.390354961157	0.374531835205993	n/a	n/a	n/a	n/a	1430.51497005988	0.230591852421214	1526.92476817449	0.064696756479619	8.04079802597344e-05	55.6453830654135	1643.85114885115	2	1	0	0	1	0	0
146.838717855871	2.51050781452656	punish_vlpfc	149.349225670397	26	4	5	10	0	0	0	0	250	250	250	750	2000	0	BLOCKED	0.25	-1	9	-1	irritable	At this moment	2	3	11	237	VLPFC	589.933415293694	0.0823970037453183	-5123.80703750426	6.66644250464918	-0.00161984782874104	55.8273606870606	1649.44761904762	0.026902382782475	1258.51283206131	0.942899369548541	-0.000406331338559723	37.3652704478027	1707.59794628752	1	2	0	0	1	0	0
150.360896945178	2.50795768734815	punish_vlpfc	152.868854632527	27	4	5	10	0	0	0	0	250	250	250	750	2000	0	BLOCKED	0.25	1	6	1	nervous	At this moment	4	3	11	237	VLPFC	463.670032173395	0.406991260923845	n/a	n/a	n/a	n/a	1359.52421052632	0	737.556004526093	1.37068346656357	-0.000583073660927562	42.1189930971366	1399.57647963105	1	3	0	0	1	0	0
153.874002137572	2.53100791731475	punish_vlpfc	156.405010054886	28	4	5	10	0	0	0	0	250	250	250	750	2000	0	BLOCKED	0.25	-1	7	-1	strong	At this moment	4	3	11	237	VLPFC	511.602690726519	0.403245942571785	n/a	n/a	n/a	n/a	1475.69665271967	0	480.170344577838	1.85095534692321	-0.000709465975717154	21.3622156851995	1465.85549577248	1	4	0	0	1	0	0
157.396936180204	2.51110056391357	punish_vlpfc	159.908036744118	29	4	5	10	0	0	0	0	250	250	250	750	2000	0	BLOCKED	0.25	1	3	-1	excited	At this moment	2	3	11	237	VLPFC	755.125730901957	0.367041198501873	n/a	n/a	n/a	n/a	1349.10453648915	0	763.745597654177	1.27799675110417	-0.000446941416287569	45.0622735321278	1465.13604919293	1	5	0	0	1	0	0
160.896364058882	2.53123077136277	punish_vlpfc	163.427594830245	30	4	5	10	0	0	0	0	250	250	250	750	2000	0	BLOCKED	0.25	1	0	-1	interested	At this moment	3	3	11	237	VLPFC	251.985498964787	1	n/a	n/a	n/a	n/a	n/a	0	750.015368242746	1.29368065974984	-0.000651559782437231	42.4027414583367	1286.99615680246	2	6	0	0	1	0	0
164.432782886237	2.54759220674634	punish_vlpfc	166.980375092983	31	4	5	10	0	0	0	0	250	250	250	750	2000	0	BLOCKED	0.25	1	1	-1	hostile	At this moment	5	3	11	237	VLPFC	314.534843325615	0.561797752808989	n/a	n/a	n/a	n/a	1219.07407407407	0.701767870868563	n/a	n/a	n/a	n/a	1006.68556701031	4	7	0	0	1	0	0
168.001722534746	2.54801252636312	punish_vlpfc	170.549735061109	32	4	5	10	0	0	0	0	250	250	250	750	2000	0	BLOCKED	0.25	1	1	-1	guilty	At this moment	5	3	11	237	VLPFC	1053.21239504218	0	3408.47046224736	-1.79363545016364	0.000450363795030062	18.3483220638182	1651.85642946317	0.242121445042275	600.422494781191	1.69827828518927	-0.000735401642709508	64.7422968119748	1476.69168356998	1	8	0	0	1	0	0
171.539358949095	6.04960159552098	panas_none	177.588960544616	33	5	6	10	n/a	n/a	n/a	n/a	n/a	n/a	n/a	n/a	2000	0	BLOCKED	n/a	n/a	+	0	ashamed	At this moment	1	3	11	237	NONE	n/a	0	-2909.25846593872	3.75473869220915	-0.000784433814013242	21.835110566705	1474.10237203496	0.0345887778631822	131.838355232948	2.23357743807238	-0.00109573734003443	31.2300374316641	1098.59633757962	4	1	0	1	0	0	1
178.579559771597	5.99839770773053	panas_none	184.577957479328	34	5	6	10	n/a	n/a	n/a	n/a	n/a	n/a	n/a	n/a	2000	0	BLOCKED	n/a	n/a	+	0	excited	At this moment	2	3	11	237	NONE	n/a	0	-737.424155899877	1.76427245347169	-0.000390388206330073	11.186865859203	1225.21473158552	0	2153.62480316865	-1.79026991188574	0.000772464633063304	24.4522821492756	1260.23136049193	4	2	0	1	0	0	1
185.562154589474	6.02174942532181	panas_none	191.583904014796	35	5	6	10	n/a	n/a	n/a	n/a	n/a	n/a	n/a	n/a	2000	0	BLOCKED	n/a	n/a	+	0	proud	At this moment	2	3	11	237	NONE	n/a	0.335830212234707	n/a	n/a	n/a	n/a	1290.21428571429	0	969.395238989522	0.0809545493009484	6.30636148847133e-05	20.7839601633609	1092.76787086856	4	3	0	1	0	0	1
192.573118161649	14.9569591990411	panas_none	207.53007736069	36	5	6	10	n/a	n/a	n/a	n/a	n/a	n/a	n/a	n/a	2000	0	BLOCKED	n/a	n/a	+	0	hostile	At this moment	4	3	11	237	NONE	n/a	1	n/a	n/a	n/a	n/a	n/a	0.647963105303613	n/a	n/a	n/a	n/a	1015.59170305677	6	4	0	1	0	0	1
208.538830023378	2.54398458075525	punish_vlpfc	211.082814604133	37	4	7	10	0	0	0	0	250	250	250	750	2000	0	BLOCKED	0.25	-1	10	-1	nervous	At this moment	2	3	11	237	VLPFC	381.714756011963	0	2549.4417463342	-0.93888599732301	0.000183055703388513	26.9589803092226	1395.41323345818	0	1792.39968627135	-0.616883925914664	0.000312851746522888	27.6395483009863	1538.02690238278	1	1	0	0	1	0	0
212.09022591123	2.51213514265419	punish_vlpfc	214.602361053884	38	4	7	10	0	0	0	0	250	250	250	750	2000	0	BLOCKED	0.25	-1	9	-1	upset	At this moment	5	3	11	237	VLPFC	778.854396253824	0	4950.44310535544	-3.05297027294248	0.000663166824790008	11.8303428694139	1499.14481897628	0.241352805534204	1145.69117160315	0.459994500649545	-0.000117366259720519	18.8186328480845	1370.72340425532	1	2	0	0	1	0	0
215.595107366622	2.52684809291361	punish_vlpfc	218.121955459535	39	4	7	10	0	0	0	0	250	250	250	750	2000	0	BLOCKED	0.25	-1	10	-1	proud	At this moment	2	3	11	237	VLPFC	674.259336531162	0	4916.71395995719	-3.0384029993813	0.000655511967016589	15.9070562875479	1462.00374531835	0.230591852421214	895.800661021304	0.806637962702051	-0.000188978668147925	21.412969432352	1385.88411588412	1	3	0	0	1	0	0
219.129795549065	2.5117546687126	punish_vlpfc	221.641550217777	40	4	7	10	0	0	0	0	250	250	250	750	2000	0	BLOCKED	0.25	-1	9	-1	alert	At this moment	5	3	11	237	VLPFC	573.92636013031	0	4584.09330433916	-2.99471276082805	0.000702462086210172	14.0518675113968	1429.87141073658	0	1028.90756740452	0.176620471954112	8.03973441274821e-05	25.3112701649704	1249.32052267487	0	4	0	0	1	0	0
222.648941425741	2.52871872681379	punish_vlpfc	225.177660152555	41	4	7	10	0	0	0	0	250	250	250	750	2000	0	BLOCKED	0.25	-1	9	-1	strong	At this moment	4	3	11	237	VLPFC	416.939797997475	0	3054.37901153066	-1.65173185139708	0.000389755079395723	21.2115322586238	1325.47815230961	0.201383551114527	228.509511797047	2.13923283976737	-0.000914932218746906	49.8949042906829	1364.4302213667	1	5	0	0	1	0	0
226.185414908707	2.51165523073078	punish_vlpfc	228.697070139438	42	4	7	10	0	0	0	0	250	250	250	750	2000	0	BLOCKED	0.25	-1	0	1	upset	At this moment	3	3	11	237	VLPFC	617.310610234737	0	3044.14095165891	-1.43145112695743	0.000282628909670013	13.2637388905972	1299.63670411985	0	852.122416861714	0.517066130686973	-2.58697831536482e-05	31.7384109336366	1274.19369715603	0	6	0	0	1	0	0
229.685842809618	2.53096172446013	punish_vlpfc	232.216804534078	43	4	7	10	0	0	0	0	250	250	250	750	2000	0	BLOCKED	0.25	-1	6	-1	interested	At this moment	1	3	11	237	VLPFC	502.203328222036	0.886392009987516	n/a	n/a	n/a	n/a	1240.64835164835	0.372790161414297	n/a	n/a	n/a	n/a	1256.90318627451	3	7	0	0	1	0	0
233.221533835202	2.51473005217315	punish_vlpfc	235.736263887376	44	4	7	10	0	0	0	0	250	250	250	750	2000	0	BLOCKED	0.25	-1	3	1	active	At this moment	5	3	11	237	VLPFC	453.744564831257	0	6916.78017966085	-5.11935057043147	0.0011634450876713	27.3588971179223	1358.9163545568	0.264411990776326	n/a	n/a	n/a	n/a	1468.50888192268	1	8	0	0	1	0	0
236.730593803763	6.061528165102	panas_none	242.792121968865	45	5	8	10	n/a	n/a	n/a	n/a	n/a	n/a	n/a	n/a	2000	0	BLOCKED	n/a	n/a	+	0	irritable	At this moment	2	3	11	237	NONE	n/a	0.227215980024969	-2408.60392370905	3.37473064280564	-0.000796700231683212	11.9402973322432	1130.34410339257	0.0384319754035357	597.311437559213	1.41626635199271	-0.00079201482604332	45.745191554133	1129.47961630695	4	1	0	1	0	0	1
243.798109760553	6.03291222617031	panas_none	249.831021986723	46	5	8	10	n/a	n/a	n/a	n/a	n/a	n/a	n/a	n/a	2000	0	BLOCKED	n/a	n/a	+	0	strong	At this moment	2	3	11	237	NONE	n/a	0.373283395755306	n/a	n/a	n/a	n/a	1444.21513944223	0.156033820138355	487.492971439509	2.48826071561483	-0.00133724292745408	92.451220605021	1507.36885245902	5	2	0	1	0	0	1
250.839914285839	6.0303102642894	panas_none	256.870224550128	47	5	8	10	n/a	n/a	n/a	n/a	n/a	n/a	n/a	n/a	2000	0	BLOCKED	n/a	n/a	+	0	interested	At this moment	2	3	11	237	NONE	n/a	0	591.360795677695	0.222313256404799	2.91383973176558e-05	14.8111945015993	1188.46192259675	0	1185.83446819978	-0.140227267026296	8.13929243686342e-05	23.5176785864602	1137.24903920062	2	3	0	1	0	0	1
257.863621794134	8.81441583508257	panas_none	266.678037629217	48	5	8	10	n/a	n/a	n/a	n/a	n/a	n/a	n/a	n/a	2000	0	BLOCKED	n/a	n/a	+	0	scared	At this moment	1	3	11	237	NONE	n/a	0.405742821473159	n/a	n/a	n/a	n/a	1358.49369747899	0.557263643351268	n/a	n/a	n/a	n/a	1305.43923611111	10	4	0	1	0	0	1
267.667100503296	2.54723747387527	punish_rtpj	270.214337977171	49	3	9	10	750	250	250	250	0	0	0	0	2000	0	BLOCKED	0.25	-1	8	-1	upset	At this moment	3	3	11	237	RTPJ	535.761901646852	0	8689.28232182753	-6.18371049030026	0.00132120406459392	17.4415241197492	1587.85018726592	0.230591852421214	1341.53118347755	-0.205479952046292	0.000381394669429283	37.5169872858626	1480.36863136863	1	1	0	0	1	0	0
271.219534143418	2.53102131676673	punish_rtpj	273.750555460185	50	3	9	10	750	250	250	250	0	0	0	0	2000	0	BLOCKED	0.25	-1	8	-1	jittery	At this moment	2	3	11	237	RTPJ	580.946967422962	0	8380.91099932563	-5.91338122822644	0.00126521591529768	20.3438441003945	1600.60923845193	0.703305149884704	n/a	n/a	n/a	n/a	1461.31088082902	2	2	0	0	1	0	0
274.739872923851	2.580138063699	punish_rtpj	277.32001098755	51	3	9	10	750	250	250	250	0	0	0	0	2000	0	BLOCKED	0.25	-1	7	-1	guilty	At this moment	2	3	11	237	RTPJ	460.125172019005	0.519350811485643	n/a	n/a	n/a	n/a	1173.64155844156	0	706.169564019148	0.976153159058935	-0.000304460959225314	26.0909497881268	1286.77786318217	2	3	0	0	1	0	0
278.325833401799	2.54706786504386	punish_rtpj	280.872901266843	52	3	9	10	750	250	250	250	0	0	0	0	2000	0	BLOCKED	0.25	1	4	-1	proud	At this moment	2	3	11	237	RTPJ	341.345029890537	0.393258426966292	n/a	n/a	n/a	n/a	1095.35390946502	0	828.245380630557	0.800119737105538	-0.000397692941610474	28.2784324916263	1165.25518831668	1	4	0	0	1	0	0
281.863951843798	2.51177547314768	punish_rtpj	284.375727316946	53	3	9	10	750	250	250	250	0	0	0	0	2000	0	BLOCKED	0.25	1	4	-1	irritable	At this moment	4	3	11	237	RTPJ	468.726914614439	0.137328339575531	4652.42267934022	-2.92018221600936	0.000620192010883222	18.2325147548212	1298.74095513748	0.242121445042275	1004.11870099692	0.192099542258026	0.000166085820903756	106.968051365591	1344.81237322515	2	5	0	0	1	0	0
285.365636472195	2.52986508515477	punish_rtpj	287.89550155735	54	3	9	10	750	250	250	250	0	0	0	0	2000	0	BLOCKED	0.25	-1	10	-1	excited	At this moment	4	3	11	237	RTPJ	584.673072755337	0.374531835205993	n/a	n/a	n/a	n/a	1533.8123752495	0	871.026001178138	1.150224437095	-0.000463469847327216	47.6129798209421	1449.20830130669	1	6	0	0	1	0	0
288.886200927615	2.52863762485981	punish_rtpj	291.414838552475	55	3	9	10	750	250	250	250	0	0	0	0	2000	0	BLOCKED	0.25	1	10	1	afraid	At this moment	2	3	11	237	RTPJ	816.256143897772	0.466916354556804	n/a	n/a	n/a	n/a	1406.46370023419	0.237509607993851	-529.226744666399	3.76705868774311	-0.00162182844055306	26.3965175115752	1489.23084677419	3	7	0	0	1	0	0
292.406872931242	2.52783118948338	punish_rtpj	294.934704120725	56	3	9	10	750	250	250	250	0	0	0	0	2000	0	BLOCKED	0.25	-1	1	1	proud	At this moment	2	3	11	237	RTPJ	616.572935163975	0.606741573033708	n/a	n/a	n/a	n/a	1145.53968253968	0.401229823212913	n/a	n/a	n/a	n/a	1482.64184852375	4	8	0	0	1	0	0
295.924272295177	5.99911493098733	panas_none	301.923387226164	57	5	10	10	n/a	n/a	n/a	n/a	n/a	n/a	n/a	n/a	2000	0	BLOCKED	n/a	n/a	+	0	guilty	At this moment	1	3	11	237	NONE	n/a	0.373283395755306	n/a	n/a	n/a	n/a	1014.14143426295	0	716.103908839305	0.694686738006687	-0.000382970879857804	55.6723548635298	979.265949269792	4	1	0	1	0	0	0
302.911640491307	6.05082059299946	panas_none	308.962461084306	58	5	10	10	n/a	n/a	n/a	n/a	n/a	n/a	n/a	n/a	2000	0	BLOCKED	n/a	n/a	+	0	enthusiastic	At this moment	1	3	11	237	NONE	n/a	0	-4489.14063112523	5.44597304882199	-0.00127901623323905	20.2544383671447	1234.94506866417	0.100691775557264	1484.44248510942	-0.104150704819226	-7.96375427821601e-05	26.9614592859509	1345.03504273504	4	2	0	1	0	0	0
309.967282771111	6.03418693715332	panas_none	316.001469708264	59	5	10	10	n/a	n/a	n/a	n/a	n/a	n/a	n/a	n/a	2000	0	BLOCKED	n/a	n/a	+	0	irritable	At this moment	1	3	11	237	NONE	n/a	0	2124.85103723946	-0.704518287985116	0.000127600021365766	19.8413478172922	1215.21972534332	0.826287471176018	n/a	n/a	n/a	n/a	1553.80088495575	4	3	0	1	0	0	0
317.00667504251	7.08498707833883	panas_none	324.091662120849	60	5	10	10	n/a	n/a	n/a	n/a	n/a	n/a	n/a	n/a	2000	0	BLOCKED	n/a	n/a	+	0	alert	At this moment	3	3	11	237	NONE	n/a	1	n/a	n/a	n/a	n/a	n/a	0.0691775557263643	946.991981516262	0.27853118942496	0.000145491369029166	36.3404262979452	1284.3245251858	5	4	0	1	0	0	0
325.096806804955	2.53100157019497	punish_rtpj	327.62780837515	61	3	11	10	750	250	250	250	0	0	0	0	2000	0	BLOCKED	0.25	-1	0	1	guilty	At this moment	5	3	11	237	RTPJ	1468.66661706567	0.374531835205993	n/a	n/a	n/a	n/a	1676.83033932136	0.230591852421214	1833.60548934931	1.36079867285787	-0.000886364541050496	75.5835999223249	2166.88311688312	2	1	0	0	1	0	0
328.632997136384	2.51418420085315	punish_rtpj	331.147181337237	62	3	11	10	750	250	250	250	0	0	0	0	2000	0	BLOCKED	0.25	-1	8	-1	nervous	At this moment	1	3	11	237	RTPJ	745.470015764236	0.780274656679151	n/a	n/a	n/a	n/a	1980.01704545455	0.241352805534204	1310.75658978852	0.80149704801494	-0.000269188863787787	47.4744279976906	1686.35055724417	2	2	0	0	1	0	0
332.136683572322	2.51336225029826	punish_rtpj	334.65004582262	63	3	11	10	750	250	250	250	0	0	0	0	2000	0	BLOCKED	0.25	1	3	-1	inspired	At this moment	3	3	11	237	RTPJ	129.08149933815	0.868913857677903	n/a	n/a	n/a	n/a	1541.89523809524	0.87086856264412	n/a	n/a	n/a	n/a	1775.79761904762	1	3	0	0	1	0	0
335.642742063731	2.52698173478245	punish_rtpj	338.169723798513	64	3	11	10	750	250	250	250	0	0	0	0	2000	0	BLOCKED	0.25	-1	8	-1	jittery	At this moment	5	3	11	237	RTPJ	120.671933114529	0.717852684144819	n/a	n/a	n/a	n/a	1619.04867256637	0.31129900076864	n/a	n/a	n/a	n/a	1545.296875	2	4	0	0	1	0	0
339.159435135543	2.56293175765876	punish_rtpj	341.722366893202	65	3	11	10	750	250	250	250	0	0	0	0	2000	0	BLOCKED	0.25	-1	4	1	irritable	At this moment	4	3	11	237	RTPJ	84.6108358502388	1	n/a	n/a	n/a	n/a	n/a	1	n/a	n/a	n/a	n/a	n/a	1	5	0	0	1	0	0
342.727983379036	2.51415422838926	punish_rtpj	345.242137607425	66	3	11	10	750	250	250	250	0	0	0	0	2000	0	BLOCKED	0.25	-1	6	-1	distressed	At this moment	5	3	11	237	RTPJ	702.257842808962	1	n/a	n/a	n/a	n/a	n/a	1	n/a	n/a	n/a	n/a	n/a	2	6	0	0	1	0	0
346.248778093457	2.52943736055494	punish_rtpj	348.778215454012	67	3	11	10	750	250	250	250	0	0	0	0	2000	0	BLOCKED	0.25	-1	8	-1	enthusiastic	At this moment	1	3	11	237	RTPJ	721.244512826204	0	681.673832937898	1.67862487360693	-0.000470432731942015	15.3082056961977	2108.24968789014	0	1732.7343767892	-0.662494315738119	0.000597831869066304	55.6114874630157	1692.36740968486	1	7	0	0	1	0	0
349.785823874086	2.52875610423087	punish_rtpj	352.314579978317	68	3	11	10	750	250	250	250	0	0	0	0	2000	0	BLOCKED	0.25	-1	9	-1	nervous	At this moment	3	3	11	237	RTPJ	660.822155088186	0	-1660.26027704752	1.96716311937577	-0.000263712651321761	92.306143460206	1292.59675405743	0.325903151421983	n/a	n/a	n/a	n/a	1611.45496009122	1	8	0	0	1	0	0
353.319321621031	6.01743797555565	panas_none	359.336759596586	69	5	12	10	n/a	n/a	n/a	n/a	n/a	n/a	n/a	n/a	2000	0	BLOCKED	n/a	n/a	+	0	irritable	At this moment	1	3	11	237	NONE	n/a	0.139825218476904	1299.48161461841	-0.540026574765015	0.0001775117267641	12.3987127173284	944.188679245283	0	765.684651132069	0.495551759477926	-0.000251534765778987	45.8744184617086	971.716372021522	4	1	0	1	0	0	0
360.341851035476	6.00055854555967	panas_none	366.342409581035	70	5	12	10	n/a	n/a	n/a	n/a	n/a	n/a	n/a	n/a	2000	0	BLOCKED	n/a	n/a	+	0	jittery	At this moment	1	3	11	237	NONE	n/a	0.696629213483146	n/a	n/a	n/a	n/a	1288.85185185185	0	1252.17348197586	0.416147760202659	-0.000244775566272337	46.6644967872673	1397.32744043044	3	2	0	1	0	0	0
367.333754593283	5.9976928260624	panas_none	373.331447419345	71	5	12	10	n/a	n/a	n/a	n/a	n/a	n/a	n/a	n/a	2000	0	BLOCKED	n/a	n/a	+	0	guilty	At this moment	1	3	11	237	NONE	n/a	0.264669163545568	n/a	n/a	n/a	n/a	1124.21731748727	0	1338.70282494061	-0.11950488616368	-1.91876267608379e-05	13.009221269731	1220.74634896234	7	3	0	1	0	0	0
374.32064287746	10.7871500671506	panas_none	385.10779294461	72	5	12	10	n/a	n/a	n/a	n/a	n/a	n/a	n/a	n/a	2000	0	BLOCKED	n/a	n/a	+	0	ashamed	At this moment	5	3	11	237	NONE	n/a	0.772784019975031	n/a	n/a	n/a	n/a	1784.30769230769	0.203689469638739	484.12667948249	2.21845564629183	-0.00103158091035844	38.1811323040694	1550.46235521236	7	4	0	1	0	0	0
386.098233846515	2.52906887564063	reward_vlpfc	388.627302722156	73	2	13	10	0	0	0	0	250	250	250	750	2000	0	BLOCKED	0.75	-1	2	1	excited	At this moment	2	3	11	237	VLPFC	366.275061815977	0.374531835205993	n/a	n/a	n/a	n/a	1275.30339321357	0.292083013066872	n/a	n/a	n/a	n/a	1415.27578718784	2	1	1	0	0	0	0
389.635668916494	2.52806426939367	reward_vlpfc	392.163733185887	74	2	13	10	0	0	0	0	250	250	250	750	2000	0	BLOCKED	0.75	1	10	1	inspired	At this moment	4	3	11	237	VLPFC	648.867376118898	0.510611735330836	n/a	n/a	n/a	n/a	1035.39030612245	0	705.256729298978	1.30950146997226	-0.000521333732586916	50.3268035432002	1368.82398155265	1	2	1	0	0	0	0
393.169281616628	2.56378438588979	reward_vlpfc	395.733066002518	75	2	13	10	0	0	0	0	250	250	250	750	2000	0	BLOCKED	0.75	-1	4	1	scared	At this moment	4	3	11	237	VLPFC	402.873547613621	0.595505617977528	n/a	n/a	n/a	n/a	1383.83950617284	0.230591852421214	792.883753623354	0.513269593496091	3.44503527630443e-05	55.091038458443	1330.44855144855	3	3	1	0	0	0	0
396.721619697481	2.51450508242846	reward_vlpfc	399.23612477991	76	2	13	10	0	0	0	0	250	250	250	750	2000	0	BLOCKED	0.75	-1	4	1	enthusiastic	At this moment	3	3	11	237	VLPFC	676.515028357506	1	n/a	n/a	n/a	n/a	n/a	1	n/a	n/a	n/a	n/a	n/a	3	4	1	0	0	0	0
400.244608043134	2.54441230535502	reward_vlpfc	402.789020348489	77	2	13	10	0	0	0	0	250	250	250	750	2000	0	BLOCKED	0.75	-1	8	-1	guilty	At this moment	1	3	11	237	VLPFC	197.411649107933	0.510611735330836	n/a	n/a	n/a	n/a	1366.60969387755	0	1123.0030907508	1.23908739116897	-0.000542885075167502	22.9083856345093	1738.26902382782	1	5	1	0	0	0	0
403.778309250176	2.51332910427453	reward_vlpfc	406.29163835445	78	2	13	10	0	0	0	0	250	250	250	750	2000	0	BLOCKED	0.75	1	7	1	hostile	At this moment	2	3	11	237	VLPFC	354.260690569878	0.928838951310861	n/a	n/a	n/a	n/a	965.210526315789	0	882.485826519315	0.829904016795609	-0.000336109092816008	22.937081006942	1299.78016910069	1	6	1	0	0	0	0
407.297005187362	2.56429532814025	reward_vlpfc	409.861300515503	79	2	13	10	0	0	0	0	250	250	250	750	2000	0	BLOCKED	0.75	-1	1	1	jittery	At this moment	1	3	11	237	VLPFC	402.033260941505	0.425717852684145	n/a	n/a	n/a	n/a	1205.28913043478	0.872405841660261	n/a	n/a	n/a	n/a	994.993975903614	4	7	1	0	0	0	0
410.850902893811	2.5466196886897	reward_vlpfc	413.397522582501	80	2	13	10	0	0	0	0	250	250	250	750	2000	0	BLOCKED	0.75	1	3	-1	afraid	At this moment	3	3	11	237	VLPFC	584.516863405704	0.139825218476904	3638.98052437406	-1.80168426551785	0.000366817291616611	16.2389206759768	1503.73439767779	0	1176.1441952708	0.259968544199567	6.51155191247765e-05	59.6438635848432	1452.80399692544	1	8	1	0	0	0	0
414.403476875544	6.01646157866713	panas_none	420.419938454211	81	5	14	10	n/a	n/a	n/a	n/a	n/a	n/a	n/a	n/a	2000	0	BLOCKED	n/a	n/a	+	0	distressed	At this moment	1	3	11	237	NONE	n/a	0.373283395755306	n/a	n/a	n/a	n/a	1048.62948207171	0.159877017678709	3030.09817953728	-2.590340177193	0.000769430798096418	32.2813361186507	1278.70631290027	2	1	0	1	0	1	1
421.426429077923	6.01571473559738	panas_none	427.442143813521	82	5	14	10	n/a	n/a	n/a	n/a	n/a	n/a	n/a	n/a	2000	0	BLOCKED	n/a	n/a	+	0	alert	At this moment	3	3	11	237	NONE	n/a	0	5196.40831927613	-3.80634265822323	0.000835605837027426	31.3840869205498	933.394506866417	0	1141.42661360564	0.0361053074625144	-5.91086078676505e-05	16.839633517291	1121.90161414297	1	2	0	1	0	1	1
428.43281567961	6.04843901681897	panas_none	434.481254696429	83	5	14	10	n/a	n/a	n/a	n/a	n/a	n/a	n/a	n/a	2000	0	BLOCKED	n/a	n/a	+	0	ashamed	At this moment	1	3	11	237	NONE	n/a	0.373283395755306	n/a	n/a	n/a	n/a	1335.03984063745	0	1399.14084605878	0.307662018675337	-0.000157112159067981	17.5569191934752	1524.63950807071	2	3	0	1	0	1	1
435.487246719509	13.2392394471466	panas_none	448.726486166656	84	5	14	10	n/a	n/a	n/a	n/a	n/a	n/a	n/a	n/a	2000	0	BLOCKED	n/a	n/a	+	0	interested	At this moment	3	3	11	237	NONE	n/a	1	n/a	n/a	n/a	n/a	n/a	0.492697924673328	n/a	n/a	n/a	n/a	1217.2696969697	11	4	0	1	0	1	1
449.731500735045	2.53117188426847	reward_rtpj	452.262672619313	85	1	15	10	750	250	250	250	0	0	0	0	2000	0	BLOCKED	0.75	-1	0	1	active	At this moment	4	3	11	237	RTPJ	889.189710497856	0.766541822721598	n/a	n/a	n/a	n/a	1714.89839572193	0	910.99480840564	1.28799925463096	-0.000568389509659764	55.8475775648583	1516.75787855496	2	1	1	0	0	0	0
453.270024686724	2.52873917862775	reward_rtpj	455.798763865352	86	1	15	10	750	250	250	250	0	0	0	0	2000	0	BLOCKED	0.75	-1	1	1	hostile	At this moment	3	3	11	237	RTPJ	467.653900623322	0.696629213483146	n/a	n/a	n/a	n/a	1483.57201646091	0.747117601844735	n/a	n/a	n/a	n/a	1696.07598784195	2	2	1	0	0	0	0
456.789469582737	2.61235105010866	reward_rtpj	459.401820632845	87	1	15	10	750	250	250	250	0	0	0	0	2000	0	BLOCKED	0.75	1	10	1	attentive	At this moment	5	3	11	237	RTPJ	899.458274275064	0.478152309612984	n/a	n/a	n/a	n/a	1322.03110047847	0	922.05406841735	1.12129548664604	-0.000403178347406656	27.8514885963551	1527.01152959262	1	3	1	0	0	0	0
460.390477997214	2.54735242709518	reward_rtpj	462.937830424309	88	1	15	10	750	250	250	250	0	0	0	0	2000	0	BLOCKED	0.75	-1	8	-1	strong	At this moment	3	3	11	237	RTPJ	540.881197303534	0	3978.51572683608	-2.19441087550079	0.000423645735289546	13.3194108429882	1261.3695380774	0.378170637970792	n/a	n/a	n/a	n/a	1288.9826946848	1	4	1	0	0	0	0
463.94637645337	2.52762138226626	reward_rtpj	466.473997835636	89	1	15	10	750	250	250	250	0	0	0	0	2000	0	BLOCKED	0.75	-1	7	-1	scared	At this moment	5	3	11	237	RTPJ	335.514152824879	0	6749.91355042212	-5.57601967374103	0.00138803492881272	9.05228110449247	1235.63920099875	0.604919292851653	n/a	n/a	n/a	n/a	1147.11478599222	2	5	1	0	0	0	0
467.482157748938	2.52789254486561	reward_rtpj	470.010050293803	90	1	15	10	750	250	250	250	0	0	0	0	2000	0	BLOCKED	0.75	1	9	1	proud	At this moment	5	3	11	237	RTPJ	1467.21171870828	0.374531835205993	n/a	n/a	n/a	n/a	2546.0998003992	0.66717909300538	n/a	n/a	n/a	n/a	2156.45727482679	2	6	1	0	0	0	0
471.017688686311	2.54555866369606	reward_rtpj	473.563247350007	91	1	15	10	750	250	250	250	0	0	0	0	2000	0	BLOCKED	0.75	-1	4	1	jittery	At this moment	1	3	11	237	RTPJ	523.806064814329	0.378277153558052	n/a	n/a	n/a	n/a	1776.46586345382	0.402767102229055	n/a	n/a	n/a	n/a	1991.52252252252	2	7	1	0	0	0	0
474.551680802524	2.58110493990779	reward_rtpj	477.132785742432	92	1	15	10	750	250	250	250	0	0	0	0	2000	0	BLOCKED	0.75	1	10	1	active	At this moment	2	3	11	237	RTPJ	258.496221870184	0	8480.7394639262	-6.26888997877042	0.001324148814163	20.5536790853769	1216.97128589263	0.359723289777095	n/a	n/a	n/a	n/a	1308.99759903962	2	8	1	0	0	0	0
478.12194100222	6.03297640252117	panas_none	484.154917404741	93	5	16	10	n/a	n/a	n/a	n/a	n/a	n/a	n/a	n/a	2000	0	BLOCKED	n/a	n/a	+	0	attentive	At this moment	3	3	11	237	NONE	n/a	0	-1433.75210293491	2.09834976637714	-0.000413493124596784	20.8824772283645	1127.65293383271	0.0899308224442736	1218.11938496918	0.174005339468837	-0.000277588811456029	37.7581544820569	1073.72212837838	3	1	0	1	0	1	0
485.161982441783	6.03243513518572	panas_none	491.194417576969	94	5	16	10	n/a	n/a	n/a	n/a	n/a	n/a	n/a	n/a	2000	0	BLOCKED	n/a	n/a	+	0	upset	At this moment	1	3	11	237	NONE	n/a	0	4503.46367134754	-2.99642922799947	0.000648078965299508	14.3079769611382	1104.02372034956	0.34358186010761	n/a	n/a	n/a	n/a	1165.30796252927	4	2	0	1	0	1	0
492.19963102141	6.05011359563468	panas_none	498.249744617045	95	5	16	10	n/a	n/a	n/a	n/a	n/a	n/a	n/a	n/a	2000	0	BLOCKED	n/a	n/a	+	0	distressed	At this moment	1	3	11	237	NONE	n/a	0.102372034956305	-1053.64137838293	1.88906701828219	-0.000392336736241548	10.3989643371356	1155.75799721836	0	923.157757203698	-0.224246479781384	0.000227950482124736	21.9185123918835	928.889315910838	3	3	0	1	0	1	0
499.258068849921	11.051499733597	panas_none	510.309568583518	96	5	16	10	n/a	n/a	n/a	n/a	n/a	n/a	n/a	n/a	2000	0	BLOCKED	n/a	n/a	+	0	jittery	At this moment	1	3	11	237	NONE	n/a	0.017478152309613	2828.39112742992	-0.78457911768094	2.82270420038886e-05	54.3036929307425	1273.49555273189	0.788624135280553	n/a	n/a	n/a	n/a	960.56	6	4	0	1	0	1	0
