onset	duration	trial_type	offset	trial	block	blockCntr	frequency	amplitude_1	amplitude_2	amplitude_3	amplitude_4	amplitude_5	amplitude_6	amplitude_7	amplitude_8	transition	sham	mode	rewardFraction	guess	outcome	correct	word	when	answer	runNr	scanNr	subjectNr	target	reactionTime	outcomeEyeClosed	outcomeParms_1	outcomeParms_2	outcomeParms_3	outcomeSigma	outcomePupilArea	guessEyeClosed	guessParms_1	guessParms_2	guessParms_3	guessSigma	guessPupilArea	nrBlinks	trialInBlock	isReward	isPanas	isPunish	beforePanasReward	beforePanasVLPFC
20.3485474647209	2.54002943646908	reward_vlpfc	22.88857690119	1	2	1	10	0	0	0	0	250	250	250	750	2000	0	BLOCKED	0.75	-1	4	1	upset	At this moment	1	1	6	225	VLPFC	1145.92032688856	0	579.687183171193	0.441606971547215	-6.04940696555305e-05	11.314754984044	1237.13857677903	0.212913143735588	821.624754041112	-0.0148592117369613	0.000127936588318409	9.07549945186563	886.876953125	1	1	1	0	0	0	0
23.8753766831309	2.51603807982058	reward_vlpfc	26.3914147629514	2	2	1	10	0	0	0	0	250	250	250	750	2000	0	BLOCKED	0.75	-1	2	1	hostile	At this moment	5	1	6	225	VLPFC	337.896315082908	0	4370.06758919318	-2.67275353612104	0.000595819817150237	21.5819197823175	1416.30961298377	0	1040.75084985661	0.335163982310616	-4.26672444233725e-05	16.4627514151738	1288.88009223674	0	2	1	0	0	0	0
27.3754877574891	2.51879977630079	reward_vlpfc	29.8942875337899	3	2	1	10	0	0	0	0	250	250	250	750	2000	0	BLOCKED	0.75	-1	1	1	irritable	At this moment	5	1	6	225	VLPFC	490.561852902174	0	8925.52134245088	-6.69714291983044	0.00147664002571993	19.9209742698463	1443.45193508115	0	1275.53526639302	0.0841421512325967	7.53507282494555e-05	12.4974654526948	1412.22982321291	0	3	1	0	0	0	0
30.8951200625673	2.51874688374996	reward_vlpfc	33.4138669463173	4	2	1	10	0	0	0	0	250	250	250	750	2000	0	BLOCKED	0.75	1	10	1	guilty	At this moment	1	1	6	225	VLPFC	473.521988138556	0	7060.50654807786	-4.98550430515131	0.00111231329724639	15.469085445721	1548.16978776529	0.230591852421214	1277.87621857655	0.0951546647876928	0.000120512763660586	20.3460402928307	1488.38861138861	1	4	1	0	0	0	0
34.3979501667544	2.51872890028357	reward_vlpfc	36.916679067038	5	2	1	10	0	0	0	0	250	250	250	750	2000	0	BLOCKED	0.75	-1	7	-1	excited	At this moment	1	1	6	225	VLPFC	324.827270559967	0.374531835205993	n/a	n/a	n/a	n/a	1645.37125748503	0	1167.97420221297	0.42240718430365	-5.89288434704564e-05	18.5434838438915	1476.2475019216	1	5	1	0	0	0	0
37.9174188575372	2.51875393608958	reward_vlpfc	40.4361727936268	6	2	1	10	0	0	0	0	250	250	250	750	2000	0	BLOCKED	0.75	-1	8	-1	ashamed	At this moment	4	1	6	225	VLPFC	523.528017885983	0	307.41204845002	1.39926337408777	-0.00035166356134695	14.7167143776641	1675.40324594257	0.230591852421214	1224.46639089783	0.482575682719642	-0.000143945735361999	16.6857998715271	1532.02997002997	1	6	1	0	0	0	0
41.4205060195252	2.51853072951734	reward_vlpfc	43.9390367490426	7	2	1	10	0	0	0	0	250	250	250	750	2000	0	BLOCKED	0.75	-1	4	1	afraid	At this moment	5	1	6	225	VLPFC	390.019810020924	0	10035.5564396364	-7.58405218297378	0.00168027549912838	16.3890170544687	1595.92259675406	0	1453.44196117809	0.222994017658647	5.7639073625728e-07	14.0542757960588	1643.48501152959	0	7	1	0	0	0	0
44.9231788565218	2.51869222810865	reward_vlpfc	47.4418710846305	8	2	1	10	0	0	0	0	250	250	250	750	2000	0	BLOCKED	0.75	-1	2	1	scared	At this moment	3	1	6	225	VLPFC	340.666121758521	0	6002.26122122354	-4.17847829401079	0.000970856060623291	15.6823315940601	1560.32584269663	0.230591852421214	1280.18603612911	0.296864134863799	-1.90777081171179e-05	13.7320456792162	1550.58141858142	2	8	1	0	0	0	0
48.4795982845947	6.01810053675622	panas_none	54.4976988213509	9	5	2	10	n/a	n/a	n/a	n/a	n/a	n/a	n/a	n/a	2000	0	BLOCKED	n/a	n/a	+	0	enthusiastic	At this moment	5	1	6	225	NONE	n/a	0	3391.53349626794	-2.18572372402654	0.000537028826152258	12.9643910559975	1198.48813982522	0	1168.28308815474	0.517958814172315	-0.000257309419924578	58.3086403707097	1390.89162182936	1	1	0	1	0	1	1
55.4818240032047	6.02141196317226	panas_none	61.503235966377	10	5	2	10	n/a	n/a	n/a	n/a	n/a	n/a	n/a	n/a	2000	0	BLOCKED	n/a	n/a	+	0	proud	At this moment	4	1	6	225	NONE	n/a	0	222.124425028148	0.696536619896672	-8.6824897728755e-05	18.8344714968164	1297.30461922597	0.229823212913144	1260.80998377825	0.395931190046259	-0.000310303405314621	18.7834913393519	1313.66067864271	2	2	0	1	0	1	1
62.5040441645756	6.03834286927431	panas_none	68.5423870338499	11	5	2	10	n/a	n/a	n/a	n/a	n/a	n/a	n/a	n/a	2000	0	BLOCKED	n/a	n/a	+	0	guilty	At this moment	1	1	6	225	NONE	n/a	0	1911.68139656057	-0.770933201513375	0.000214704387895312	14.1449345732876	1250.92134831461	0	1458.33072801258	-0.37285720619099	0.000195500290843972	13.971072292478	1309.93159108378	1	3	0	1	0	1	1
69.5264494498894	8.95733721963317	panas_none	78.4837866695225	12	5	2	10	n/a	n/a	n/a	n/a	n/a	n/a	n/a	n/a	2000	0	BLOCKED	n/a	n/a	+	0	distressed	At this moment	1	1	6	225	NONE	n/a	0	947.574534366951	0.550370430445528	-0.000109343629857628	13.5209392727965	1615.14481897628	0.230591852421214	1264.00042370464	-0.443595602202479	0.000503499170724515	18.5988161382494	1245.21178821179	2	4	0	1	0	1	1
79.4846498759911	2.51867918127775	punish_vlpfc	82.0033290572688	13	4	3	10	0	0	0	0	250	250	250	750	2000	0	BLOCKED	0.25	-1	7	-1	scared	At this moment	1	1	6	225	VLPFC	490.100982457399	0	2944.52594606811	-1.28751491130883	0.000306139111328739	13.5039343268068	1607.28339575531	0.230591852421214	842.050833152851	0.63632386972954	-8.97905766944513e-05	12.0965995076688	1275.52947052947	1	1	0	0	1	0	0
83.0041026990041	2.51879836583139	punish_vlpfc	85.5229010648355	14	4	3	10	0	0	0	0	250	250	250	750	2000	0	BLOCKED	0.25	-1	3	1	inspired	At this moment	1	1	6	225	VLPFC	257.130445025861	0	5794.36200649212	-3.91865748224598	0.000876169315366531	17.1623163454922	1470.04369538077	0.230591852421214	1038.73246054902	0.677791123240007	-0.00022579522023898	14.5669949686724	1452.68331668332	1	2	0	0	1	0	0
86.5236567231044	2.51868552838265	punish_vlpfc	89.0423422514871	15	4	3	10	0	0	0	0	250	250	250	750	2000	0	BLOCKED	0.25	-1	9	-1	active	At this moment	3	1	6	225	VLPFC	389.72890098393	0	1054.7872003122	0.730248037769587	-0.000203099207699722	18.5620176005079	1681.9163545568	0.230591852421214	1244.03284744236	0.297279793220401	-1.31540341428561e-05	12.9428466663646	1513.37362637363	1	3	0	0	1	0	0
90.0464043995291	2.51557861984521	punish_vlpfc	92.5619830193743	16	4	3	10	0	0	0	0	250	250	250	750	2000	0	BLOCKED	0.25	-1	0	1	afraid	At this moment	5	1	6	225	VLPFC	287.814472675323	0	4478.62093743743	-2.83574997457493	0.000665169126446752	17.3446129629156	1492.58676654182	0.232897770945427	1205.58260090577	0.334539077025764	-8.80594982487477e-05	18.5441440899294	1428.86372745491	1	4	0	0	1	0	0
93.5626353608593	2.51871585345269	punish_vlpfc	96.081351214312	17	4	3	10	0	0	0	0	250	250	250	750	2000	0	BLOCKED	0.25	1	0	-1	ashamed	At this moment	4	1	6	225	VLPFC	357.482779949903	0	814.227923203591	0.725332883869925	-0.00013202188109457	14.3198526540722	1748.2784019975	0.230591852421214	1193.70014684388	0.350885610276599	-4.4745367903749e-05	17.8611351579471	1488.90709290709	1	5	0	0	1	0	0
97.082269429028	2.51869434380532	punish_vlpfc	99.6009637728334	18	4	3	10	0	0	0	0	250	250	250	750	2000	0	BLOCKED	0.25	1	4	-1	hostile	At this moment	2	1	6	225	VLPFC	323.213695071638	0.374531835205993	n/a	n/a	n/a	n/a	1660.0878243513	0.230591852421214	1189.73130829014	0.511729761787961	-0.000158711217635277	15.9805195948465	1511.58641358641	2	6	0	0	1	0	0
100.603407408766	2.51708112095297	punish_vlpfc	103.120488529719	19	4	3	10	0	0	0	0	250	250	250	750	2000	0	BLOCKED	0.25	1	1	-1	scared	At this moment	5	1	6	225	VLPFC	388.448901213706	0	2927.25209764241	-1.30489914594147	0.000320226615523556	12.5004026620905	1616.35830212235	0.461183704842429	n/a	n/a	n/a	n/a	1550.75606276747	2	7	0	0	1	0	0
104.121231141157	2.51881634930521	punish_vlpfc	106.640047490463	20	4	3	10	0	0	0	0	250	250	250	750	2000	0	BLOCKED	0.25	1	2	-1	alert	At this moment	3	1	6	225	VLPFC	290.446053482592	0.373283395755306	n/a	n/a	n/a	n/a	1586.54980079681	0.231360491929285	1145.02249502439	0.553934742306115	-0.0001916622840226	14.503907175463	1472.368	2	8	0	0	1	0	0
107.62407640788	6.02167184191198	panas_none	113.645748249792	21	5	4	10	n/a	n/a	n/a	n/a	n/a	n/a	n/a	n/a	2000	0	BLOCKED	n/a	n/a	+	0	active	At this moment	5	1	6	225	NONE	n/a	0	2028.29700726156	-0.731255706780581	0.000164755521117989	12.8116657416276	1227.76404494382	0	1121.53813574808	0.366247521330272	-0.000199916826863341	24.9183259142086	1293.10299769408	3	1	0	1	0	0	1
114.646541285463	6.02156253062934	panas_none	120.668103816092	22	5	4	10	n/a	n/a	n/a	n/a	n/a	n/a	n/a	n/a	2000	0	BLOCKED	n/a	n/a	+	0	jittery	At this moment	3	1	6	225	NONE	n/a	0	4676.66529487883	-3.32873298577956	0.000788840185307372	10.8710175625076	1206.65418227216	0.229823212913144	1373.27137635831	-0.168149057322498	0.000182839040876874	24.2713480329536	1385.55189620758	4	2	0	1	0	0	1
121.668934229173	6.02168629920483	panas_none	127.690620528378	23	5	4	10	n/a	n/a	n/a	n/a	n/a	n/a	n/a	n/a	2000	0	BLOCKED	n/a	n/a	+	0	interested	At this moment	4	1	6	225	NONE	n/a	0	777.612621078948	0.0893457878265711	3.31390449868093e-05	12.903827395859	1113.12858926342	0	902.246451352408	0.329841711336463	-0.000169687452192046	16.9622708122966	1036.1806302844	0	3	0	1	0	0	1
128.691218919456	5.62131047999114	panas_none	134.312529399447	24	5	4	10	n/a	n/a	n/a	n/a	n/a	n/a	n/a	n/a	2000	0	BLOCKED	n/a	n/a	+	0	hostile	At this moment	3	1	6	225	NONE	n/a	0	1068.26041503458	0.257113869141692	-6.49667986825003e-05	13.8404726716289	1317.75655430712	0.124519600307456	1115.15198683291	-0.280239714188339	0.000310231590081054	18.900737696921	1116.59350307287	2	4	0	1	0	0	1
135.296652112991	2.51876380936056	punish_vlpfc	137.815415922351	25	4	5	10	0	0	0	0	250	250	250	750	2000	0	BLOCKED	0.25	-1	8	-1	scared	At this moment	4	1	6	225	VLPFC	589.981868430972	0.374531835205993	n/a	n/a	n/a	n/a	1573.41516966068	0.230591852421214	743.167975634997	0.756575662706591	-0.000170367664499815	12.2843203937052	1258.05494505495	2	1	0	0	1	0	0
138.81617863296	2.51864145126194	punish_vlpfc	141.334820084222	26	4	5	10	0	0	0	0	250	250	250	750	2000	0	BLOCKED	0.25	-1	6	-1	nervous	At this moment	5	1	6	225	VLPFC	289.932643100619	0	1974.45201628433	-0.478821074869741	0.000146088854649224	13.6493184082597	1620.89637952559	0.467332820906995	n/a	n/a	n/a	n/a	1492.83261183261	2	2	0	0	1	0	0
142.319033067718	2.51870527493952	punish_vlpfc	144.837738342658	27	4	5	10	0	0	0	0	250	250	250	750	2000	0	BLOCKED	0.25	-1	0	1	excited	At this moment	4	1	6	225	VLPFC	356.631209857762	0	6399.76520380328	-4.44384011899406	0.00100351272732903	16.0130816095311	1540.67041198502	0.230591852421214	1183.9839805143	0.474197451092683	-0.000132699835759939	14.0695763358368	1494.05294705295	1	3	0	0	1	0	0
145.838570871435	2.51870245400815	punish_vlpfc	148.357273325443	28	4	5	10	0	0	0	0	250	250	250	750	2000	0	BLOCKED	0.25	-1	9	-1	irritable	At this moment	5	1	6	225	VLPFC	289.756334587932	0	1721.28453904123	-0.232382370050632	8.35875291397553e-05	15.038444875454	1605.86017478152	0.235972328977709	1195.80054733196	0.371402938661075	-9.28693084991548e-05	20.4121093522832	1456.42555331992	1	4	0	0	1	0	0
149.358190482304	2.51867424464226	punish_vlpfc	151.876864726946	29	4	5	10	0	0	0	0	250	250	250	750	2000	0	BLOCKED	0.25	-1	6	-1	enthusiastic	At this moment	5	1	6	225	VLPFC	290.166428178549	0	1882.08710179976	-0.293588415505093	6.11567654785477e-05	19.3671930847739	1538.18352059925	0.243658724058417	1131.9991458321	0.315247044217742	-3.88664587999936e-05	17.8104144030917	1395.71239837398	1	5	0	0	1	0	0
152.877558677241	2.51877579833567	punish_vlpfc	155.396334475577	30	4	5	10	0	0	0	0	250	250	250	750	2000	0	BLOCKED	0.25	-1	9	-1	attentive	At this moment	3	1	6	225	VLPFC	289.997524626553	0	2093.296849044	-0.688826507114359	0.000205624981506105	12.8405795026538	1564.84144818976	0.464258262874712	n/a	n/a	n/a	n/a	1525.80057388809	2	6	0	0	1	0	0
156.397171940997	2.51868552838266	punish_vlpfc	158.91585746938	31	4	5	10	0	0	0	0	250	250	250	750	2000	0	BLOCKED	0.25	-1	2	1	proud	At this moment	2	1	6	225	VLPFC	339.982044741511	0	3130.41934650775	-1.42729935909056	0.000325743071304171	15.2434744539629	1586.86142322097	0.259031514219831	n/a	n/a	n/a	n/a	1520.82261410788	1	7	0	0	1	0	0
159.916812356263	2.51858785347642	punish_vlpfc	162.43540020974	32	4	5	10	0	0	0	0	250	250	250	750	2000	0	BLOCKED	0.25	-1	10	-1	interested	At this moment	2	1	6	225	VLPFC	389.911909215152	0.374531835205993	n/a	n/a	n/a	n/a	1645.62075848303	0.257494235203689	n/a	n/a	n/a	n/a	1517.65631469979	2	8	0	0	1	0	0
163.436124132477	6.02163834328948	panas_none	169.457762475766	33	5	6	10	n/a	n/a	n/a	n/a	n/a	n/a	n/a	n/a	2000	0	BLOCKED	n/a	n/a	+	0	hostile	At this moment	3	1	6	225	NONE	n/a	0.373283395755306	n/a	n/a	n/a	n/a	1186.71115537849	0	1527.15962957557	-0.548453275496142	0.000279129034226714	69.1637804345619	1303.14373558801	3	1	0	1	0	0	1
170.441905641101	6.02146591356396	panas_none	176.463371554665	34	5	6	10	n/a	n/a	n/a	n/a	n/a	n/a	n/a	n/a	2000	0	BLOCKED	n/a	n/a	+	0	ashamed	At this moment	2	1	6	225	NONE	n/a	0	2998.49295804608	-1.54207629622515	0.000310334147730712	19.4437695590857	1145.5493133583	0.459646425826287	n/a	n/a	n/a	n/a	1320.87624466572	3	2	0	1	0	0	1
177.464385328598	6.02153220556676	panas_none	183.485917534165	35	5	6	10	n/a	n/a	n/a	n/a	n/a	n/a	n/a	n/a	2000	0	BLOCKED	n/a	n/a	+	0	afraid	At this moment	1	1	6	225	NONE	n/a	0	254.726965482745	0.803806589282912	-0.000148429999603731	14.0269771298692	1280.03495630462	0	1332.39669814127	0.131562452672335	-0.000116941369225362	33.1407964651925	1343.88854727133	2	3	0	1	0	0	1
184.486529324695	6.87237379660456	panas_none	191.3589031213	36	5	6	10	n/a	n/a	n/a	n/a	n/a	n/a	n/a	n/a	2000	0	BLOCKED	n/a	n/a	+	0	alert	At this moment	5	1	6	225	NONE	n/a	0.401997503121099	n/a	n/a	n/a	n/a	1404.98329853862	0.230591852421214	1080.9923802488	-0.0545800348538595	0.000153822660880266	13.8282602022082	1151.74525474525	5	4	0	1	0	0	1
192.3597589228	2.51868200221659	reward_vlpfc	194.878440925017	37	2	7	10	0	0	0	0	250	250	250	750	2000	0	BLOCKED	0.75	-1	3	1	irritable	At this moment	5	1	6	225	VLPFC	339.788457997143	0	6230.48827563099	-4.32867097338587	0.000976323593163272	15.2146598015243	1494.47565543071	0.306687163720215	n/a	n/a	n/a	n/a	1481.97893569845	1	1	1	0	0	0	0
195.862506514601	2.51872537411003	reward_vlpfc	198.381231888711	38	2	7	10	0	0	0	0	250	250	250	750	2000	0	BLOCKED	0.75	-1	8	-1	strong	At this moment	2	1	6	225	VLPFC	327.513506993651	0	1254.80134975615	0.138439367836974	1.97936755387822e-05	13.8449196279767	1633.92759051186	0.276710222905457	n/a	n/a	n/a	n/a	1445.10626992561	1	2	1	0	0	0	0
199.382312307253	2.5185063989386	reward_vlpfc	201.900818706192	39	2	7	10	0	0	0	0	250	250	250	750	2000	0	BLOCKED	0.75	-1	1	1	afraid	At this moment	2	1	6	225	VLPFC	306.59697073698	0	2993.71037763509	-1.29592210290666	0.000292698065082142	18.2811163064845	1578.41073657928	0.231360491929285	1199.65900895318	0.418653216435201	-0.000108266311658215	17.0970983374011	1487.368	1	3	1	0	0	0	0
202.90157401184	2.5187948396653	reward_vlpfc	205.420368851505	40	2	7	10	0	0	0	0	250	250	250	750	2000	0	BLOCKED	0.75	1	0	-1	proud	At this moment	1	1	6	225	VLPFC	339.856160469353	0	459.191072943004	1.13229792288327	-0.000270290297784326	14.0559927181251	1630.96754057428	0.261337432744043	n/a	n/a	n/a	n/a	1459.40062434964	1	4	1	0	0	0	0
206.404397063687	2.51879272396118	reward_vlpfc	208.923189787649	41	2	7	10	0	0	0	0	250	250	250	750	2000	0	BLOCKED	0.75	1	7	1	irritable	At this moment	1	1	6	225	VLPFC	256.955546990037	0	4270.11384051231	-2.6046797601466	0.000613320721767282	17.5183358368756	1537.93757802747	0.262106072252114	n/a	n/a	n/a	n/a	1452.00416666667	1	5	1	0	0	0	0
209.907243035644	2.51879519227148	reward_vlpfc	212.426038227916	42	2	7	10	0	0	0	0	250	250	250	750	2000	0	BLOCKED	0.75	-1	1	1	jittery	At this moment	1	1	6	225	VLPFC	340.543763644993	0	4710.79674485227	-2.98183779516878	0.000684050451813165	22.1053138694068	1500.48689138577	0.308224442736357	n/a	n/a	n/a	n/a	1483.58333333333	1	6	1	0	0	0	0
213.426871461935	2.51872572672366	reward_vlpfc	215.945597188659	43	2	7	10	0	0	0	0	250	250	250	750	2000	0	BLOCKED	0.75	1	10	1	determined	At this moment	4	1	6	225	VLPFC	656.582055039704	0	4965.70867109398	-3.21226968022149	0.000729073377971387	20.9579295018125	1472.57428214732	0.268255188316679	n/a	n/a	n/a	n/a	1412.71428571429	1	7	1	0	0	0	0
216.946385992922	2.51871902700515	reward_vlpfc	219.465105019927	44	2	7	10	0	0	0	0	250	250	250	750	2000	0	BLOCKED	0.75	-1	2	1	proud	At this moment	5	1	6	225	VLPFC	356.850185021758	0	4569.0112595379	-2.97284257348207	0.00071701359835575	16.3378926470473	1524.89263420724	0.549577248270561	n/a	n/a	n/a	n/a	1474.00511945392	2	8	1	0	0	0	0
220.465828237429	6.02164186946302	panas_none	226.487470106892	45	5	8	10	n/a	n/a	n/a	n/a	n/a	n/a	n/a	n/a	2000	0	BLOCKED	n/a	n/a	+	0	distressed	At this moment	1	1	6	225	NONE	n/a	0	1646.9042850753	-0.751471573540511	0.000240459816252349	10.397313481956	1141.85518102372	0	1323.91972249477	0.113203925997429	-0.000127102609099618	70.3520450360764	1313.09377401998	2	1	0	1	0	1	1
227.471639013268	6.02148248656837	panas_none	233.493121499836	46	5	8	10	n/a	n/a	n/a	n/a	n/a	n/a	n/a	n/a	2000	0	BLOCKED	n/a	n/a	+	0	afraid	At this moment	1	1	6	225	NONE	n/a	0.198501872659176	1271.92622478203	-0.196721174850362	9.31494600820861e-05	13.0577337486996	1257.6246105919	0.229823212913144	1275.43244184254	-0.289870647945193	0.000128662303894642	31.4770497702348	1130.55489021956	5	2	0	1	0	1	1
234.493995637424	6.02155688876658	panas_none	240.515552526191	47	5	8	10	n/a	n/a	n/a	n/a	n/a	n/a	n/a	n/a	2000	0	BLOCKED	n/a	n/a	+	0	enthusiastic	At this moment	5	1	6	225	NONE	n/a	0	1403.93195128401	-0.448105762511052	0.000180854352498351	18.0416597066134	1269.82646691635	0	1177.10939939849	-0.234095027509034	0.000175708588213831	16.8667431294953	1129.54342813221	2	3	0	1	0	1	1
241.499606832027	10.6088229009285	panas_none	252.108429732956	48	5	8	10	n/a	n/a	n/a	n/a	n/a	n/a	n/a	n/a	2000	0	BLOCKED	n/a	n/a	+	0	irritable	At this moment	5	1	6	225	NONE	n/a	0.576779026217228	n/a	n/a	n/a	n/a	1690.42182890855	0.230591852421214	1285.30362897092	0.222692784323326	1.33291831152704e-05	15.6747738454329	1482.25674325674	8	4	0	1	0	1	1
253.109041876093	2.51877156694232	reward_rtpj	255.627813443035	49	1	9	10	750	250	250	250	0	0	0	0	2000	0	BLOCKED	0.75	1	9	1	distressed	At this moment	4	1	6	225	RTPJ	389.967270091176	0	4829.36429493435	-3.05153663556866	0.00070666014698171	15.8122970058834	1574.30961298377	0.230591852421214	925.441166687156	0.821868572877598	-0.000236441424293136	19.0874640394984	1474.36663336663	1	1	1	0	0	0	0
256.612033831492	2.51867248155179	reward_rtpj	259.130706313044	50	1	9	10	750	250	250	250	0	0	0	0	2000	0	BLOCKED	0.75	-1	3	1	jittery	At this moment	2	1	6	225	RTPJ	389.948228769004	0	4138.17702394321	-2.46421428528166	0.000589139014177377	19.6509550913095	1592.84644194757	0.39815526518063	n/a	n/a	n/a	n/a	1519.51468710089	1	2	1	0	0	0	0
260.131507811524	2.5186904650256	reward_rtpj	262.65019827655	51	1	9	10	750	250	250	250	0	0	0	0	2000	0	BLOCKED	0.75	-1	6	-1	scared	At this moment	2	1	6	225	RTPJ	489.872134022415	0.0998751560549313	3381.10912258943	-1.67164514129952	0.000414967887022405	14.8920090671632	1716.0693481276	0.461183704842429	n/a	n/a	n/a	n/a	1605.81740370899	3	3	1	0	0	0	0
263.634335800007	2.51872184794399	reward_rtpj	266.153057647951	52	1	9	10	750	250	250	250	0	0	0	0	2000	0	BLOCKED	0.75	-1	8	-1	interested	At this moment	4	1	6	225	RTPJ	424.162657998502	0.656679151061174	n/a	n/a	n/a	n/a	1741.37090909091	0.461183704842429	n/a	n/a	n/a	n/a	1710.4422253923	3	4	1	0	0	0	0
267.137119006127	2.51877544572949	reward_rtpj	269.655894451857	53	1	9	10	750	250	250	250	0	0	0	0	2000	0	BLOCKED	0.75	-1	0	1	irritable	At this moment	2	1	6	225	RTPJ	323.60368950665	0	3189.8774884895	-1.32124549967735	0.000296391586209357	20.2844541702906	1737.51685393258	0.230591852421214	1327.24919615948	0.290074005377036	1.40030752113351e-05	21.8365578105275	1622.91508491508	1	5	1	0	0	0	0
270.640050311401	2.51869575427475	reward_rtpj	273.158746065676	54	1	9	10	750	250	250	250	0	0	0	0	2000	0	BLOCKED	0.75	1	10	1	attentive	At this moment	1	1	6	225	RTPJ	857.011683613062	0	3339.58475671657	-1.51212899809836	0.000346171206662758	15.0947101110982	1709.31210986267	0.487317448116833	n/a	n/a	n/a	n/a	1656.04497751124	2	6	1	0	0	0	0
274.142889936246	2.51871726391465	reward_rtpj	276.661607200161	55	1	9	10	750	250	250	250	0	0	0	0	2000	0	BLOCKED	0.75	-1	4	1	excited	At this moment	2	1	6	225	RTPJ	539.860180296004	0	1196.06517140705	0.604526559431622	-0.00014732102818013	19.3066963145645	1808.15230961298	0.445810914681015	n/a	n/a	n/a	n/a	1788.55755894591	2	7	1	0	0	0	0
277.66420034571	2.51689458655568	reward_rtpj	280.181094932266	56	1	9	10	750	250	250	250	0	0	0	0	2000	0	BLOCKED	0.75	-1	4	1	proud	At this moment	2	1	6	225	RTPJ	289.11527685076	0	4786.93717074915	-2.9571568685963	0.000687698744540907	21.1037994098902	1645.70911360799	0.465026902382782	n/a	n/a	n/a	n/a	1664.44109195402	2	8	1	0	0	0	0
281.182024430715	6.02150258574636	panas_none	287.203527016461	57	5	10	10	n/a	n/a	n/a	n/a	n/a	n/a	n/a	n/a	2000	0	BLOCKED	n/a	n/a	+	0	determined	At this moment	5	1	6	225	NONE	n/a	0.0324594257178527	753.398129267663	0.155190698540675	4.36036600495743e-05	12.5938727022692	1269.66967741935	0.293620292083013	n/a	n/a	n/a	n/a	1406.98585418934	6	1	0	1	0	1	0
288.204273506686	6.02161824412644	panas_none	294.225891750813	58	5	10	10	n/a	n/a	n/a	n/a	n/a	n/a	n/a	n/a	2000	0	BLOCKED	n/a	n/a	+	0	strong	At this moment	5	1	6	225	NONE	n/a	0.0299625468164794	1164.07422453763	0.0103546095723533	5.02669857155988e-05	14.641708431894	1407.50965250965	0	1270.38264502679	-0.191715361044156	0.000175435530959863	23.350967330293	1259.13604919293	3	2	0	1	0	1	0
295.226707001358	6.02152162706108	panas_none	301.248228628419	59	5	10	10	n/a	n/a	n/a	n/a	n/a	n/a	n/a	n/a	2000	0	BLOCKED	n/a	n/a	+	0	hostile	At this moment	3	1	6	225	NONE	n/a	0.373283395755306	n/a	n/a	n/a	n/a	1269.39243027888	0	1300.35158780288	-0.22268483933355	0.000129211540951312	12.6826538911464	1222.39892390469	4	3	0	1	0	1	0
302.232437027887	7.42268060867485	panas_none	309.655117636561	60	5	10	10	n/a	n/a	n/a	n/a	n/a	n/a	n/a	n/a	2000	0	BLOCKED	n/a	n/a	+	0	afraid	At this moment	3	1	6	225	NONE	n/a	0.374531835205993	n/a	n/a	n/a	n/a	1486.56686626747	0.230591852421214	980.197415227046	0.187244522666094	9.58716174097342e-05	19.1247979006992	1177.68231768232	4	4	0	1	0	1	0
310.655839443602	2.51870739064367	reward_rtpj	313.174546834245	61	1	11	10	750	250	250	250	0	0	0	0	2000	0	BLOCKED	0.75	-1	7	-1	active	At this moment	2	1	6	225	RTPJ	356.213711306453	0	2611.33560096676	-0.918009936344424	0.000248190281930851	13.6358601301716	1791.05867665418	0.489623366641045	n/a	n/a	n/a	n/a	1581.04518072289	2	1	1	0	0	0	0
314.180221147291	2.51400453747806	reward_rtpj	316.694225684769	62	1	11	10	750	250	250	250	0	0	0	0	2000	0	BLOCKED	0.75	-1	0	1	jittery	At this moment	5	1	6	225	RTPJ	285.32887531817	0	4773.07675165349	-3.14724856795313	0.000754887230400485	20.2762859152606	1533.11860174782	0.280553420445811	n/a	n/a	n/a	n/a	1416.74893162393	1	2	1	0	0	0	0
317.694969001442	2.51873595262322	reward_rtpj	320.213704954065	63	1	11	10	750	250	250	250	0	0	0	0	2000	0	BLOCKED	0.75	-1	4	1	inspired	At this moment	2	1	6	225	RTPJ	306.948177285492	0	4391.47834368902	-2.59656015626664	0.000604577617258504	19.0096573157057	1636.17353308365	0.291314373558801	n/a	n/a	n/a	n/a	1567.78199566161	1	3	1	0	0	0	0
321.214425703242	2.51870386447013	reward_rtpj	323.733129567713	64	1	11	10	750	250	250	250	0	0	0	0	2000	0	BLOCKED	0.75	1	0	-1	ashamed	At this moment	1	1	6	225	RTPJ	289.919596269727	0.374531835205993	n/a	n/a	n/a	n/a	1711.02994011976	0.243658724058417	1274.52359176262	0.439282990769878	-0.000113958219137025	19.6909746171478	1574.46951219512	2	4	1	0	0	0	0
324.717306936897	2.51881388098002	reward_rtpj	327.236120817877	65	1	11	10	750	250	250	250	0	0	0	0	2000	0	BLOCKED	0.75	1	7	1	excited	At this moment	4	1	6	225	RTPJ	258.008814014494	0	3347.45207666431	-1.62002986644001	0.000378176512992437	18.693603823726	1633.14731585518	0.266717909300538	n/a	n/a	n/a	n/a	1544.24318658281	1	5	1	0	0	0	0
328.2369709775	2.5186079526469	reward_rtpj	330.755578930147	66	1	11	10	750	250	250	250	0	0	0	0	2000	0	BLOCKED	0.75	-1	2	1	proud	At this moment	5	1	6	225	RTPJ	590.023829869926	0.374531835205993	n/a	n/a	n/a	n/a	1599.09780439122	0.413528055342045	n/a	n/a	n/a	n/a	1597.56094364351	3	6	1	0	0	0	0
331.75640370135	2.51870880111306	reward_rtpj	334.275112502463	67	1	11	10	750	250	250	250	0	0	0	0	2000	0	BLOCKED	0.75	-1	3	1	afraid	At this moment	3	1	6	225	RTPJ	556.715626366436	0	1796.62510479242	-0.238729773687228	6.97833712210738e-05	15.2473287190593	1606.6329588015	0.40814757878555	n/a	n/a	n/a	n/a	1635.16623376623	1	7	1	0	0	0	0
335.27585793484	2.51883821155133	reward_rtpj	337.794696146391	68	1	11	10	750	250	250	250	0	0	0	0	2000	0	BLOCKED	0.75	1	9	1	hostile	At this moment	2	1	6	225	RTPJ	341.738077491522	0	3776.01548792399	-2.01656090248522	0.000479224264234009	21.4226064422567	1678.96504369538	0.289008455034589	n/a	n/a	n/a	n/a	1602.06702702703	1	8	1	0	0	0	0
338.795476135232	6.02156076754625	panas_none	344.817036902778	69	5	12	10	n/a	n/a	n/a	n/a	n/a	n/a	n/a	n/a	2000	0	BLOCKED	n/a	n/a	+	0	active	At this moment	5	1	6	225	NONE	n/a	0	-381.3508807931	1.16406900054913	-0.000211724481410463	12.7670587466399	1118.32334581773	0	1318.69491198526	0.0535123797573481	-0.000119779734263277	69.277825723381	1263.96310530361	3	1	0	1	0	1	0
345.801071814694	6.02163904852421	panas_none	351.822710863218	70	5	12	10	n/a	n/a	n/a	n/a	n/a	n/a	n/a	n/a	2000	0	BLOCKED	n/a	n/a	+	0	irritable	At this moment	2	1	6	225	NONE	n/a	0.0811485642946317	2022.58960266812	-0.830234989009522	0.000236768323786408	12.424752383957	1328.81793478261	0	1249.99306794353	-0.311768990997254	0.000244337965675919	14.5091141733086	1195.89623366641	4	2	0	1	0	1	0
352.806856144249	6.02145357197526	panas_none	358.828309716225	71	5	12	10	n/a	n/a	n/a	n/a	n/a	n/a	n/a	n/a	2000	0	BLOCKED	n/a	n/a	+	0	nervous	At this moment	1	1	6	225	NONE	n/a	0	1456.12468599963	-0.567909268059812	0.000188380679934113	12.1313261804778	1104.22846441948	0.229823212913144	1170.76694237591	-0.0973218305339551	-5.58452714099437e-08	19.041356330882	1081.92814371257	4	3	0	1	0	1	0
359.81295853436	11.1085175345838	panas_none	370.921476068944	72	5	12	10	n/a	n/a	n/a	n/a	n/a	n/a	n/a	n/a	2000	0	BLOCKED	n/a	n/a	+	0	upset	At this moment	2	1	6	225	NONE	n/a	0.451935081148564	n/a	n/a	n/a	n/a	1461.94533029613	0.308224442736357	n/a	n/a	n/a	n/a	1282.69888888889	6	4	0	1	0	1	0
371.905661548316	2.5188505531475	punish_rtpj	374.424512101464	73	3	13	10	750	250	250	250	0	0	0	0	2000	0	BLOCKED	0.25	1	6	1	hostile	At this moment	5	1	6	225	RTPJ	491.186337634921	0	979.009782442604	0.735558445981133	-0.000187257462115819	14.6725259942626	1687.88639200999	0.243658724058417	929.79001775292	0.863572954374703	-0.0002518250867221	14.3990297012902	1487.14735772358	1	1	0	0	1	0	0
375.4252462501	2.51881211788952	punish_rtpj	377.94405836799	74	3	13	10	750	250	250	250	0	0	0	0	2000	0	BLOCKED	0.25	-1	8	-1	irritable	At this moment	5	1	6	225	RTPJ	557.334469228983	0.374531835205993	n/a	n/a	n/a	n/a	1678.84830339321	0.609531129900077	n/a	n/a	n/a	n/a	1594.38779527559	3	2	0	0	1	0	0
378.944632781111	2.51875040992348	punish_rtpj	381.463383191034	75	3	13	10	750	250	250	250	0	0	0	0	2000	0	BLOCKED	0.25	-1	6	-1	ashamed	At this moment	3	1	6	225	RTPJ	507.122158527374	0	2701.47467875077	-1.06746126891321	0.000287018222866578	15.7141676939046	1740.78776529338	0.514988470407379	n/a	n/a	n/a	n/a	1549.735340729	2	3	0	0	1	0	0
382.447724879742	2.51858750085535	punish_rtpj	384.966312380597	76	3	13	10	750	250	250	250	0	0	0	0	2000	0	BLOCKED	0.25	-1	1	1	active	At this moment	4	1	6	225	RTPJ	273.912899367511	0	6339.61891376324	-4.43499593516074	0.00103279182666397	28.8268237029769	1635.3570536829	0.252882398155265	n/a	n/a	n/a	n/a	1634.48559670782	1	4	0	0	1	0	0
385.95043509414	2.51873242644967	punish_rtpj	388.46916752059	77	3	13	10	750	250	250	250	0	0	0	0	2000	0	BLOCKED	0.25	-1	9	-1	inspired	At this moment	3	1	6	225	RTPJ	389.809297665954	0	-606.08011781461	2.17356021748697	-0.000495018482368278	26.1973260526249	1749.69413233458	0.536510376633359	n/a	n/a	n/a	n/a	1645.02985074627	2	5	0	0	1	0	0
389.453294112921	2.51871444298325	punish_rtpj	391.972008555904	78	3	13	10	750	250	250	250	0	0	0	0	2000	0	BLOCKED	0.25	-1	8	-1	interested	At this moment	4	1	6	225	RTPJ	506.701486423612	0	2371.98048155433	-0.689687746521356	0.000198041700453615	16.4270909447705	1808.49812734082	0.487317448116833	n/a	n/a	n/a	n/a	1690.11394302849	2	6	0	0	1	0	0
392.972721900128	2.5188255173415	punish_rtpj	395.491547417469	79	3	13	10	750	250	250	250	0	0	0	0	2000	0	BLOCKED	0.25	1	0	-1	nervous	At this moment	4	1	6	225	RTPJ	506.963128246367	0.776529338327091	n/a	n/a	n/a	n/a	1822.78212290503	0.230591852421214	1373.6342746606	0.609754280796317	-0.000218743633557748	21.7902892224489	1714.60539460539	2	7	0	0	1	0	0
396.492399340183	2.51865273500232	punish_rtpj	399.011052075185	80	3	13	10	750	250	250	250	0	0	0	0	2000	0	BLOCKED	0.25	1	0	-1	determined	At this moment	1	1	6	225	RTPJ	356.247915156186	0.374531835205993	n/a	n/a	n/a	n/a	1850.55888223553	0.539584934665642	n/a	n/a	n/a	n/a	1765.71118530885	4	8	0	0	1	0	0
399.995247780457	6.02149729648232	panas_none	406.016745076939	81	5	14	10	n/a	n/a	n/a	n/a	n/a	n/a	n/a	n/a	2000	0	BLOCKED	n/a	n/a	+	0	irritable	At this moment	3	1	6	225	NONE	n/a	0	493.451510118414	0.570375693595026	-9.38253376679452e-05	12.4410236013032	1272.4631710362	0	1537.00378815036	-0.1773230743525	3.72535699050033e-05	71.5859425394718	1421.41352805534	2	1	0	1	0	0	0
407.017600525826	6.02163375927512	panas_none	413.039234285101	82	5	14	10	n/a	n/a	n/a	n/a	n/a	n/a	n/a	n/a	2000	0	BLOCKED	n/a	n/a	+	0	strong	At this moment	4	1	6	225	NONE	n/a	0	2946.7097727469	-1.65658186656233	0.000437306443108554	16.5103062232353	1420.26217228464	0.229823212913144	1191.46193292809	0.0177173468411279	5.5325696037458e-05	14.1305840298924	1268.93013972056	6	2	0	1	0	0	0
414.039915893786	6.02163904853165	panas_none	420.061554942317	83	5	14	10	n/a	n/a	n/a	n/a	n/a	n/a	n/a	n/a	2000	0	BLOCKED	n/a	n/a	+	0	enthusiastic	At this moment	4	1	6	225	NONE	n/a	0	3773.64109066848	-2.37639143210506	0.000600336288392128	20.1108473128862	1462.81897627965	0	1713.86876728786	-0.304298023119784	0.000122645443020495	22.514011153949	1559.86779400461	3	3	0	1	0	0	0
421.062302137777	14.7953865705132	panas_none	435.85768870829	84	5	14	10	n/a	n/a	n/a	n/a	n/a	n/a	n/a	n/a	2000	0	BLOCKED	n/a	n/a	+	0	interested	At this moment	2	1	6	225	NONE	n/a	0	2176.64231917911	-0.912137846373113	0.000279502831245705	14.3186681785078	1508.8152309613	0.230591852421214	1084.86417478612	0.201129044503574	1.92274414553116e-05	15.6329174568795	1277.17582417582	8	4	0	1	0	0	0
436.841735609174	2.51883292229473	punish_rtpj	439.360568531469	85	3	15	10	750	250	250	250	0	0	0	0	2000	0	BLOCKED	0.25	-1	7	-1	nervous	At this moment	4	1	6	225	RTPJ	273.18474522233	0	1916.75671335817	-0.318706478526335	0.000119368663932177	13.0638593366431	1780.23845193508	0.485011529592621	n/a	n/a	n/a	n/a	1545.47164179104	2	1	0	0	1	0	0
440.361385897718	2.51869258072969	punish_rtpj	442.880078478448	86	3	15	10	750	250	250	250	0	0	0	0	2000	0	BLOCKED	0.25	-1	7	-1	scared	At this moment	1	1	6	225	RTPJ	256.282753713429	0	932.747449571769	0.642789428323522	-0.000134770284390231	14.3799613103583	1680.88888888889	0.245964642582629	1169.22170247878	0.396401772083397	-6.78301055721988e-05	15.9699802800874	1480.27930682977	1	2	0	0	1	0	0
443.864210712641	2.51873101598773	punish_rtpj	446.382941728629	87	3	15	10	750	250	250	250	0	0	0	0	2000	0	BLOCKED	0.25	-1	6	-1	proud	At this moment	3	1	6	225	RTPJ	373.065631203353	0.374531835205993	n/a	n/a	n/a	n/a	1718.87824351297	0.37586471944658	n/a	n/a	n/a	n/a	1582.37931034483	2	3	0	0	1	0	0
447.367035174966	2.5187708617002	punish_rtpj	449.885806036666	88	3	15	10	750	250	250	250	0	0	0	0	2000	0	BLOCKED	0.25	-1	8	-1	ashamed	At this moment	5	1	6	225	RTPJ	340.362165883183	0.374531835205993	n/a	n/a	n/a	n/a	1797.8123752495	0.230591852421214	1439.61623252954	0.0135317479053496	0.000133548965045006	21.972610486903	1594.16683316683	2	4	0	0	1	0	0
450.886633981422	2.51867212894558	punish_rtpj	453.405306110367	89	3	15	10	750	250	250	250	0	0	0	0	2000	0	BLOCKED	0.25	-1	6	-1	attentive	At this moment	2	1	6	225	RTPJ	391.184856645763	0.374531835205993	n/a	n/a	n/a	n/a	1860.66666666667	0.245196003074558	1383.65586809767	0.437288111015258	-9.86925790574811e-05	17.7479643157851	1702.7067209776	2	5	0	0	1	0	0
454.40617636916	2.51864709313219	punish_rtpj	456.924823462293	90	3	15	10	750	250	250	250	0	0	0	0	2000	0	BLOCKED	0.25	-1	6	-1	distressed	At this moment	4	1	6	225	RTPJ	239.800376452506	0.769038701622971	n/a	n/a	n/a	n/a	1752.19459459459	0.230591852421214	1348.53254488396	0.542321761009752	-0.000154941728863131	32.3866105736334	1715.64735264735	3	6	0	0	1	0	0
457.908905624881	2.51877826666083	punish_rtpj	460.427683891542	91	3	15	10	750	250	250	250	0	0	0	0	2000	0	BLOCKED	0.25	-1	4	1	jittery	At this moment	5	1	6	225	RTPJ	490.004012778401	0.374531835205993	n/a	n/a	n/a	n/a	1828.47305389222	0.230591852421214	1426.23825429854	0.266965621308635	4.73320794141269e-05	26.0896399563883	1731.51648351648	2	7	0	0	1	0	0
461.428611979529	2.5185885587037	punish_rtpj	463.947200538233	92	3	15	10	750	250	250	250	0	0	0	0	2000	0	BLOCKED	0.25	-1	1	1	interested	At this moment	5	1	6	225	RTPJ	392.380228340626	0.374531835205993	n/a	n/a	n/a	n/a	1702.53093812375	0.270561106840892	n/a	n/a	n/a	n/a	1624.15068493151	2	8	0	0	1	0	0
464.948031656548	6.02154807333648	panas_none	470.969579729885	93	5	16	10	n/a	n/a	n/a	n/a	n/a	n/a	n/a	n/a	2000	0	BLOCKED	n/a	n/a	+	0	hostile	At this moment	3	1	6	225	NONE	n/a	0.428214731585518	n/a	n/a	n/a	n/a	1244.20087336245	0.105303612605688	1519.3219728877	-0.161507425007674	8.1560704244295e-05	61.833986022939	1451.69845360825	6	1	0	1	0	0	0
471.970398153983	6.021585098125	panas_none	477.991983252108	94	5	16	10	n/a	n/a	n/a	n/a	n/a	n/a	n/a	n/a	2000	0	BLOCKED	n/a	n/a	+	0	guilty	At this moment	1	1	6	225	NONE	n/a	0	4472.51201635041	-3.09900940970073	0.000730792128419216	11.7401198897341	1226.49563046192	0.229823212913144	1413.19932808367	-0.0478649795618826	5.1371619178946e-05	18.3170800369565	1417.11876247505	4	2	0	1	0	0	0
478.992784045354	6.02149941218647	panas_none	485.01428345754	95	5	16	10	n/a	n/a	n/a	n/a	n/a	n/a	n/a	n/a	2000	0	BLOCKED	n/a	n/a	+	0	distressed	At this moment	3	1	6	225	NONE	n/a	0.0848938826466916	1722.8213728174	-0.707471069257782	0.000200197632107599	11.1703113681302	1124.10914051842	0	1261.84014772499	-0.31972955539658	0.000144327907723424	14.8144481969623	1114.10760953113	3	3	0	1	0	0	0
486.015129385762	13.9947361331583	panas_none	500.00986551892	96	5	16	10	n/a	n/a	n/a	n/a	n/a	n/a	n/a	n/a	2000	0	BLOCKED	n/a	n/a	+	0	upset	At this moment	3	1	6	225	NONE	n/a	0.374531835205993	n/a	n/a	n/a	n/a	1386.88822355289	0.367409684857802	n/a	n/a	n/a	n/a	1258.97691373026	9	4	0	1	0	0	0
