onset	duration	trial_type	offset	trial	block	blockCntr	frequency	amplitude_1	amplitude_2	amplitude_3	amplitude_4	amplitude_5	amplitude_6	amplitude_7	amplitude_8	transition	sham	mode	rewardFraction	guess	outcome	correct	word	when	answer	runNr	scanNr	subjectNr	target	reactionTime	outcomeEyeClosed	outcomeParms_1	outcomeParms_2	outcomeParms_3	outcomeSigma	outcomePupilArea	guessEyeClosed	guessParms_1	guessParms_2	guessParms_3	guessSigma	guessPupilArea	nrBlinks	trialInBlock	isReward	isPanas	isPunish	beforePanasReward	beforePanasVLPFC
20.3761083634421	2.51661707695574	punish_rtpj	22.8927254403979	1	3	1	10	750	250	250	250	0	0	0	0	2000	0	BLOCKED	0.25	-1	8	-1	attentive	At this moment	3	2	8	225	RTPJ	657.33242405206	0.533083645443196	n/a	n/a	n/a	n/a	2137.37165775401	0.230591852421214	1803.13603711264	-0.0765230261197424	0.000195367714312194	17.1520730024003	1937.34265734266	4	1	0	0	1	0	0
23.8935410435647	2.51869645951688	punish_rtpj	26.4122375030816	2	3	1	10	750	250	250	250	0	0	0	0	2000	0	BLOCKED	0.25	-1	8	-1	hostile	At this moment	2	2	8	225	RTPJ	224.492566481233	0.671660424469413	n/a	n/a	n/a	n/a	2133.89733840304	0.230591852421214	1542.42035744484	0.502211063622941	-0.000124123573811246	12.4268073900519	1903.29170829171	3	2	0	0	1	0	0
27.4130097343475	2.51874617851526	punish_rtpj	29.9317559128627	3	3	1	10	750	250	250	250	0	0	0	0	2000	0	BLOCKED	0.25	-1	10	-1	guilty	At this moment	3	2	8	225	RTPJ	240.386425934732	0.374531835205993	n/a	n/a	n/a	n/a	2039.53293413174	0.487317448116833	n/a	n/a	n/a	n/a	1844.30734632684	3	3	0	0	1	0	0
30.9326127722114	2.51870421708376	punish_rtpj	33.4513169892952	4	3	1	10	750	250	250	250	0	0	0	0	2000	0	BLOCKED	0.25	1	4	-1	ashamed	At this moment	3	2	8	225	RTPJ	256.408285371959	0.374531835205993	n/a	n/a	n/a	n/a	2096.14371257485	0.23674096848578	1663.96100160801	0.440492876955288	-0.000141171100986419	15.517427728655	1949.38066465257	2	4	0	0	1	0	0
34.435496121563	2.51866825015843	punish_rtpj	36.9541643717214	5	3	1	10	750	250	250	250	0	0	0	0	2000	0	BLOCKED	0.25	1	3	-1	upset	At this moment	2	2	8	225	RTPJ	242.20487190038	0	2824.40828296901	-0.725383250940267	0.000178364632925575	15.6344370303145	2100.17602996255	0.257494235203689	n/a	n/a	n/a	n/a	1986.63043478261	1	5	0	0	1	0	0
37.9548819473535	2.51885513716936	punish_rtpj	40.4737370845228	6	3	1	10	750	250	250	250	0	0	0	0	2000	0	BLOCKED	0.25	1	2	-1	proud	At this moment	2	2	8	225	RTPJ	590.054860152304	0.374531835205993	n/a	n/a	n/a	n/a	2032.54690618762	0.405073020753267	n/a	n/a	n/a	n/a	1929.49612403101	3	6	0	0	1	0	0
41.4746136904284	2.51859596365691	punish_rtpj	43.9932096540853	7	3	1	10	750	250	250	250	0	0	0	0	2000	0	BLOCKED	0.25	-1	4	1	hostile	At this moment	2	2	8	225	RTPJ	339.490143999457	0	5887.57295425915	-3.46541973573721	0.000759321467657589	15.5373968176528	1993.08489388265	0.491929285165257	n/a	n/a	n/a	n/a	2027.11800302572	2	7	0	0	1	0	0
44.9941380947009	2.51859067440778	punish_rtpj	47.5127287691087	8	3	1	10	750	250	250	250	0	0	0	0	2000	0	BLOCKED	0.25	1	6	1	ashamed	At this moment	3	2	8	225	RTPJ	307.856518723071	0	7291.76148484747	-4.75140051600336	0.00104312080055375	16.6304385499587	1956.56179775281	0.242121445042275	1499.85147617501	0.628225020750568	-0.00018385104816475	15.6847386768221	1921.38539553753	2	8	0	0	1	0	0
48.513544372268	6.02160202373564	panas_none	54.5351463960037	9	5	2	10	n/a	n/a	n/a	n/a	n/a	n/a	n/a	n/a	2000	0	BLOCKED	n/a	n/a	+	0	guilty	At this moment	1	2	8	225	NONE	n/a	0.214731585518102	1347.47736521008	-0.0895992176346898	2.60550216562357e-05	11.9808335268929	1273.52941176471	0	1624.2234066278	-0.15339202454444	2.73637442990166e-05	81.6202851998532	1520.10530361261	4	1	0	1	0	0	0
55.5359376685992	6.02154983641952	panas_none	61.5574875050187	10	5	2	10	n/a	n/a	n/a	n/a	n/a	n/a	n/a	n/a	2000	0	BLOCKED	n/a	n/a	+	0	scared	At this moment	1	2	8	225	NONE	n/a	0	2062.26713662885	-0.799299983800687	0.000251402200097521	14.1660997320337	1505.79026217228	0	1657.27008792754	-0.147212094281303	-3.27724660270277e-06	22.088686574127	1529.45196003075	3	2	0	1	0	0	0
62.5415435739458	6.02165139012038	panas_none	68.5631949640661	11	5	2	10	n/a	n/a	n/a	n/a	n/a	n/a	n/a	n/a	2000	0	BLOCKED	n/a	n/a	+	0	excited	At this moment	4	2	8	225	NONE	n/a	0	492.837497661669	0.910067296020482	-0.000194143515627571	16.4746146714895	1537.77028714107	0	1350.48247669265	0.316881547422785	-0.00013010703314628	12.7980984356531	1507.34511913912	3	3	0	1	0	0	0
69.5473363663107	13.1106579198837	panas_none	82.6579942861944	12	5	2	10	n/a	n/a	n/a	n/a	n/a	n/a	n/a	n/a	2000	0	BLOCKED	n/a	n/a	+	0	irritable	At this moment	4	2	8	225	NONE	n/a	0.0823970037453183	4022.75216746416	-2.04421023751956	0.000458851719216815	17.6402178163052	1762.86394557823	0.284396617986165	n/a	n/a	n/a	n/a	1550.87647690655	8	4	0	1	0	0	0
83.6421265203953	2.51870739064366	punish_rtpj	86.1608339110389	13	3	3	10	750	250	250	250	0	0	0	0	2000	0	BLOCKED	0.25	-1	10	-1	nervous	At this moment	2	2	8	225	RTPJ	290.037370353937	0.374531835205993	n/a	n/a	n/a	n/a	1960.50099800399	0.230591852421214	1138.67019560473	0.593595261569096	-7.97501795146953e-05	14.6608313845347	1628.1028971029	2	1	0	0	1	0	0
87.161656919159	2.51883256968111	punish_rtpj	89.6804894888401	14	3	3	10	750	250	250	250	0	0	0	0	2000	0	BLOCKED	0.25	1	1	-1	inspired	At this moment	4	2	8	225	RTPJ	256.353629738092	0.374531835205993	n/a	n/a	n/a	n/a	2100.48502994012	0.230591852421214	1393.63554254061	0.674364482576253	-0.000181471504813671	17.0103735442202	1861.04095904096	2	2	0	0	1	0	0
90.6811813234314	2.51875217299909	punish_rtpj	93.1999334964305	15	3	3	10	750	250	250	250	0	0	0	0	2000	0	BLOCKED	0.25	1	0	-1	attentive	At this moment	4	2	8	225	RTPJ	256.178026460111	0	1090.3919960598	0.820636812602267	-0.000165356900026195	16.9026847846131	2075.62172284644	0.235972328977709	1523.01414834064	0.592967575311908	-0.000181678485707314	17.9097318452801	1916.70221327968	1	3	0	0	1	0	0
94.2006341464445	2.51869998568296	punish_rtpj	96.7193341321275	16	3	3	10	750	250	250	250	0	0	0	0	2000	0	BLOCKED	0.25	1	3	-1	jittery	At this moment	2	2	8	225	RTPJ	339.816667355597	0.374531835205993	n/a	n/a	n/a	n/a	2108.64670658683	0.251345119139124	n/a	n/a	n/a	n/a	1922.90143737166	2	4	0	0	1	0	0
97.7036705315858	2.51863510415703	punish_rtpj	100.222305635743	17	3	3	10	750	250	250	250	0	0	0	0	2000	0	BLOCKED	0.25	1	1	-1	distressed	At this moment	2	2	8	225	RTPJ	390.951071567833	0.374531835205993	n/a	n/a	n/a	n/a	2053.74051896208	0.272098385857033	n/a	n/a	n/a	n/a	1921.73706441394	2	5	0	0	1	0	0
101.206435401618	2.51870950634778	punish_rtpj	103.725144907966	18	3	3	10	750	250	250	250	0	0	0	0	2000	0	BLOCKED	0.25	1	10	1	alert	At this moment	1	2	8	225	RTPJ	339.435488365591	0	6447.52145476741	-4.23682036645319	0.000949458214433747	16.3207657219119	1783.32958801498	0.482705611068409	n/a	n/a	n/a	n/a	1816.01783060921	2	6	0	0	1	0	0
104.72593547532	2.51873454215377	punish_rtpj	107.244670017473	19	3	3	10	750	250	250	250	0	0	0	0	2000	0	BLOCKED	0.25	-1	2	1	scared	At this moment	1	2	8	225	RTPJ	406.137933902442	0	7868.83828864045	-5.48702124112761	0.00121734556508949	20.7213037084228	1770.08239700375	0.335895465026902	n/a	n/a	n/a	n/a	1880.22916666667	1	7	0	0	1	0	0
108.245420033865	2.51876451459528	punish_rtpj	110.76418454846	20	3	3	10	750	250	250	250	0	0	0	0	2000	0	BLOCKED	0.25	-1	10	-1	jittery	At this moment	1	2	8	225	RTPJ	256.643128313124	0	2451.3295379743	-0.605010165979242	0.000178744941522419	13.8931369286785	1978.41947565543	0.285165257494235	n/a	n/a	n/a	n/a	1836.24838709677	1	8	0	0	1	0	0
111.764996978067	6.02156182540209	panas_none	117.786558803469	21	5	4	10	n/a	n/a	n/a	n/a	n/a	n/a	n/a	n/a	2000	0	BLOCKED	n/a	n/a	+	0	strong	At this moment	4	2	8	225	NONE	n/a	0.463171036204744	n/a	n/a	n/a	n/a	1443.1511627907	0.0292083013066872	1634.06347026621	-0.402491948791294	0.000195098429102161	87.3969005166386	1464.06017418844	6	1	0	1	0	0	0
118.770872988053	6.03813905664532	panas_none	124.809012044698	22	5	4	10	n/a	n/a	n/a	n/a	n/a	n/a	n/a	n/a	2000	0	BLOCKED	n/a	n/a	+	0	proud	At this moment	3	2	8	225	NONE	n/a	0	3095.06694188151	-1.60337829743477	0.000416436955994263	22.0358425969331	1586.42821473159	0.229823212913144	1466.58861920892	0.124569085002074	2.62953158623705e-05	13.7014929489753	1615.37225548902	3	2	0	1	0	0	0
125.793065292679	6.02170780885218	panas_none	131.814773101531	23	5	4	10	n/a	n/a	n/a	n/a	n/a	n/a	n/a	n/a	2000	0	BLOCKED	n/a	n/a	+	0	scared	At this moment	1	2	8	225	NONE	n/a	0	1834.39184477084	-0.427437086506366	0.000132436572990179	14.1737212170565	1527.86392009988	0.109146810146042	1584.18108022634	0.000173383996106287	-5.46348908332225e-05	23.5128350121269	1533.63416738568	3	3	0	1	0	0	0
132.798876068518	13.0604494879693	panas_none	145.859325556487	24	5	4	10	n/a	n/a	n/a	n/a	n/a	n/a	n/a	n/a	2000	0	BLOCKED	n/a	n/a	+	0	interested	At this moment	2	2	8	225	NONE	n/a	0	2728.40305262397	-0.993025604089441	0.000232953304645805	17.1860149647025	1682.76529338327	0.524212144504227	n/a	n/a	n/a	n/a	1519.98061389338	6	4	0	1	0	0	0
146.84352408269	2.5186802391261	reward_rtpj	149.362204321817	25	1	5	10	750	250	250	250	0	0	0	0	2000	0	BLOCKED	0.75	1	9	1	determined	At this moment	1	2	8	225	RTPJ	273.265141896904	0.374531835205993	n/a	n/a	n/a	n/a	1957.91816367265	0.287471176018447	n/a	n/a	n/a	n/a	1972.31930960086	2	1	1	0	0	0	0
150.362940938763	2.51884984792022	reward_rtpj	152.881790786684	26	1	5	10	750	250	250	250	0	0	0	0	2000	0	BLOCKED	0.75	1	10	1	ashamed	At this moment	1	2	8	225	RTPJ	206.878641217947	0.397003745318352	n/a	n/a	n/a	n/a	1968.10766045549	0.230591852421214	1986.57625873401	0.268026815421782	-6.33961703844679e-05	21.2601864417694	2165.64635364635	2	2	1	0	0	0	0
153.882484736972	2.51880471294373	reward_rtpj	156.401289449915	27	1	5	10	750	250	250	250	0	0	0	0	2000	0	BLOCKED	0.75	-1	9	-1	alert	At this moment	2	2	8	225	RTPJ	256.385012649	0.433208489388265	n/a	n/a	n/a	n/a	2038.87444933921	0.262106072252114	n/a	n/a	n/a	n/a	2099.28020833333	2	3	1	0	0	0	0
157.402108579241	2.51871585345268	reward_rtpj	159.920824432693	28	1	5	10	750	250	250	250	0	0	0	0	2000	0	BLOCKED	0.75	-1	2	1	excited	At this moment	1	2	8	225	RTPJ	1324.89920442551	0.390761548064919	n/a	n/a	n/a	n/a	1991.0881147541	0.262874711760184	n/a	n/a	n/a	n/a	2067.92387904067	2	4	1	0	0	0	0
160.921658019327	2.51896056965739	reward_rtpj	163.440618588984	29	1	5	10	750	250	250	250	0	0	0	0	2000	0	BLOCKED	0.75	-1	3	1	afraid	At this moment	5	2	8	225	RTPJ	592.259069129825	0.280898876404494	n/a	n/a	n/a	n/a	1997.64583333333	0.291314373558801	n/a	n/a	n/a	n/a	2046.23752711497	2	5	1	0	0	0	0
164.441106258318	2.51875217300653	reward_rtpj	166.959858431324	30	1	5	10	750	250	250	250	0	0	0	0	2000	0	BLOCKED	0.75	1	0	-1	active	At this moment	2	2	8	225	RTPJ	256.461883157492	0.224719101123595	1916.12461524064	-0.133830084739237	6.61398145249923e-05	18.303208752102	1916.29468599034	0.241352805534204	1408.51267379965	0.36472643589274	-7.29708800951565e-05	13.7704161761043	1697.726443769	2	6	1	0	0	0	0
167.94411267101	2.51862135209143	reward_rtpj	170.462734023102	31	1	5	10	750	250	250	250	0	0	0	0	2000	0	BLOCKED	0.75	1	10	1	jittery	At this moment	2	2	8	225	RTPJ	207.157913893461	0.384519350811486	n/a	n/a	n/a	n/a	1812.86612576065	0.248270561106841	1687.21925490007	0.560297112071978	-0.000185298523797821	20.3491791927714	2039.64110429448	2	7	1	0	0	0	0
171.463555268139	2.51874124187233	reward_rtpj	173.982296510011	32	1	5	10	750	250	250	250	0	0	0	0	2000	0	BLOCKED	0.75	-1	2	1	ashamed	At this moment	3	2	8	225	RTPJ	257.564516566694	0.382022471910112	n/a	n/a	n/a	n/a	1667.55353535354	0.283627978478094	n/a	n/a	n/a	n/a	1970.68240343348	2	8	1	0	0	0	0
174.983005622834	6.02163904853165	panas_none	181.004644671366	33	5	6	10	n/a	n/a	n/a	n/a	n/a	n/a	n/a	n/a	2000	0	BLOCKED	n/a	n/a	+	0	scared	At this moment	1	2	8	225	NONE	n/a	0.511860174781523	n/a	n/a	n/a	n/a	1406.59079283887	0.434281322059954	n/a	n/a	n/a	n/a	1486.64809782609	6	1	0	1	0	1	0
182.005471910886	6.02145991908014	panas_none	188.026931829967	34	5	6	10	n/a	n/a	n/a	n/a	n/a	n/a	n/a	n/a	2000	0	BLOCKED	n/a	n/a	+	0	hostile	At this moment	3	2	8	225	NONE	n/a	0	2046.99785570742	-0.535451652669893	0.000137999760584498	12.1920348147768	1538.54556803995	0.158339738662567	1806.44682350377	-0.369821961025856	0.000121434350709099	15.0798035490593	1576.6	5	2	0	1	0	1	0
189.027875433102	6.02164610087127	panas_none	195.049521533974	35	5	6	10	n/a	n/a	n/a	n/a	n/a	n/a	n/a	n/a	2000	0	BLOCKED	n/a	n/a	+	0	upset	At this moment	2	2	8	225	NONE	n/a	0.373283395755306	n/a	n/a	n/a	n/a	1224.58764940239	0	1154.69865511821	0.182326062091041	-0.000106246339701923	14.6216316613685	1218.53266717909	5	3	0	1	0	1	0
196.050239109606	10.8754680109322	panas_none	206.925707120538	36	5	6	10	n/a	n/a	n/a	n/a	n/a	n/a	n/a	n/a	2000	0	BLOCKED	n/a	n/a	+	0	jittery	At this moment	5	2	8	225	NONE	n/a	0.374531835205993	n/a	n/a	n/a	n/a	1508.6626746507	0.52728670253651	n/a	n/a	n/a	n/a	1421.86991869919	10	4	0	1	0	1	0
207.926524486788	2.51868270745126	punish_vlpfc	210.445207194239	37	4	7	10	0	0	0	0	250	250	250	750	2000	0	BLOCKED	0.25	-1	10	-1	excited	At this moment	2	2	8	225	VLPFC	289.863882772624	0.374531835205993	n/a	n/a	n/a	n/a	1792.28942115768	0.276710222905457	n/a	n/a	n/a	n/a	1647.89266737513	2	1	0	0	1	0	0
211.446185353838	2.51854906560482	punish_vlpfc	213.964734419443	38	4	7	10	0	0	0	0	250	250	250	750	2000	0	BLOCKED	0.25	-1	6	-1	distressed	At this moment	5	2	8	225	VLPFC	356.646372385323	0.424469413233458	n/a	n/a	n/a	n/a	1896.40780911063	0.371252882398155	n/a	n/a	n/a	n/a	1783.17726161369	2	2	0	0	1	0	0
214.948942466304	2.51866683968154	punish_vlpfc	217.467609305985	39	4	7	10	0	0	0	0	250	250	250	750	2000	0	BLOCKED	0.25	1	2	-1	strong	At this moment	3	2	8	225	VLPFC	256.957310065627	0.379525593008739	n/a	n/a	n/a	n/a	1914.46277665996	0.302843966179862	n/a	n/a	n/a	n/a	1769.47298787211	2	3	0	0	1	0	0
218.468428435326	2.51870950633287	punish_vlpfc	220.987137941658	40	4	7	10	0	0	0	0	250	250	250	750	2000	0	BLOCKED	0.25	1	2	-1	inspired	At this moment	2	2	8	225	VLPFC	256.54510076344	0	1634.64053658326	0.218785949534346	-6.49369842382889e-05	19.5968427346302	1804.85018726592	0.476556495003843	n/a	n/a	n/a	n/a	1737.54772393539	2	4	0	0	1	0	0
221.987873148143	2.53545352543148	punish_vlpfc	224.523326673575	41	4	7	10	0	0	0	0	250	250	250	750	2000	0	BLOCKED	0.25	1	3	-1	ashamed	At this moment	4	2	8	225	VLPFC	357.667198650539	0.387016229712859	n/a	n/a	n/a	n/a	1951.43788187373	0.292851652574942	n/a	n/a	n/a	n/a	1778.33695652174	2	5	0	0	1	0	0
225.524174717501	2.51868588100373	punish_vlpfc	228.042860598505	42	4	7	10	0	0	0	0	250	250	250	750	2000	0	BLOCKED	0.25	1	0	-1	irritable	At this moment	5	2	8	225	VLPFC	222.834561266005	0.374531835205993	n/a	n/a	n/a	n/a	1750.41916167665	0.348193697156034	n/a	n/a	n/a	n/a	1748.65448113208	2	6	0	0	1	0	0
229.043719926171	2.51865097192675	punish_vlpfc	231.562370898098	43	4	7	10	0	0	0	0	250	250	250	750	2000	0	BLOCKED	0.25	1	9	1	scared	At this moment	1	2	8	225	VLPFC	239.424486719072	0	3567.23953170298	-1.7928730908132	0.000431221154275042	18.6709355849326	1726.7315855181	0.329746348962337	n/a	n/a	n/a	n/a	1715.20756880734	1	7	0	0	1	0	0
232.546471396767	2.51884667436778	punish_vlpfc	235.065318071134	44	4	7	10	0	0	0	0	250	250	250	750	2000	0	BLOCKED	0.25	-1	3	1	excited	At this moment	2	2	8	225	VLPFC	373.897102124989	0.374531835205993	n/a	n/a	n/a	n/a	1763.30538922156	0.528823981552652	n/a	n/a	n/a	n/a	1636.56933115824	3	8	0	0	1	0	0
236.066074787244	6.02161048655213	panas_none	242.087685273796	45	5	8	10	n/a	n/a	n/a	n/a	n/a	n/a	n/a	n/a	2000	0	BLOCKED	n/a	n/a	+	0	strong	At this moment	4	2	8	225	NONE	n/a	0.141073657927591	1169.01329332082	-0.267770331359242	0.000146264502521767	11.7139872461507	1238.51744186047	0	1578.42423622369	-0.402119137326256	0.000136004025801138	64.3427626930174	1356.87855495772	3	1	0	1	0	0	1
243.088376403153	6.02163234879822	panas_none	249.110008751951	46	5	8	10	n/a	n/a	n/a	n/a	n/a	n/a	n/a	n/a	2000	0	BLOCKED	n/a	n/a	+	0	afraid	At this moment	1	2	8	225	NONE	n/a	0.373283395755306	n/a	n/a	n/a	n/a	1309.96812749004	0	1440.26815904744	-0.58953039475422	0.000342124884353491	17.4947458938107	1234.47809377402	4	2	0	1	0	0	1
250.11085044878	6.02156852512061	panas_none	256.1324189739	47	5	8	10	n/a	n/a	n/a	n/a	n/a	n/a	n/a	n/a	2000	0	BLOCKED	n/a	n/a	+	0	irritable	At this moment	3	2	8	225	NONE	n/a	0	2069.75134051564	-0.826900774347876	0.000235783283907636	14.9275567486187	1385.58426966292	0.224442736356649	1450.94981444399	0.0511628091149121	-5.44297607250921e-05	17.312901588529	1443.68979187314	5	3	0	1	0	0	1
257.13347470925	9.10718534749003	panas_none	266.24066005674	48	5	8	10	n/a	n/a	n/a	n/a	n/a	n/a	n/a	n/a	2000	0	BLOCKED	n/a	n/a	+	0	guilty	At this moment	3	2	8	225	NONE	n/a	0.385767790262172	n/a	n/a	n/a	n/a	1387.49593495935	0.61260568793236	n/a	n/a	n/a	n/a	1275.60912698413	9	4	0	1	0	0	1
267.241315924399	2.51881599668417	reward_vlpfc	269.760131921083	49	2	9	10	0	0	0	0	250	250	250	750	2000	0	BLOCKED	0.75	1	0	-1	nervous	At this moment	5	2	8	225	VLPFC	624.540099255741	0.374531835205993	n/a	n/a	n/a	n/a	1809.49301397206	0.299769408147579	n/a	n/a	n/a	n/a	1661.95499451153	2	1	1	0	0	0	0
270.760984901644	2.51868552838266	reward_vlpfc	273.279670430027	50	2	9	10	0	0	0	0	250	250	250	750	2000	0	BLOCKED	0.75	-1	7	-1	ashamed	At this moment	1	2	8	225	VLPFC	239.757709793746	0.459425717852684	n/a	n/a	n/a	n/a	1754.56120092379	0.546502690238278	n/a	n/a	n/a	n/a	1653.24406779661	3	2	1	0	0	0	0
274.263813595362	2.51888757793603	reward_vlpfc	276.782701173298	51	2	9	10	0	0	0	0	250	250	250	750	2000	0	BLOCKED	0.75	-1	4	1	attentive	At this moment	3	2	8	225	VLPFC	222.851486876607	0.746566791510612	n/a	n/a	n/a	n/a	1739.64039408867	0.367409684857802	n/a	n/a	n/a	n/a	1712.99878493317	3	3	1	0	0	0	0
277.766572470911	2.51878813993932	reward_vlpfc	280.28536061085	52	2	9	10	0	0	0	0	250	250	250	750	2000	0	BLOCKED	0.75	-1	0	1	distressed	At this moment	3	2	8	225	VLPFC	606.927231833339	0.394506866416979	n/a	n/a	n/a	n/a	1696.1175257732	0.604150653343582	n/a	n/a	n/a	n/a	1645.39029126214	3	4	1	0	0	0	0
281.269447710067	2.51895951181649	reward_vlpfc	283.788407221884	53	2	9	10	0	0	0	0	250	250	250	750	2000	0	BLOCKED	0.75	1	9	1	guilty	At this moment	3	2	8	225	VLPFC	240.582128383219	0.530586766541823	n/a	n/a	n/a	n/a	1747.76063829787	0.471176018447348	n/a	n/a	n/a	n/a	1725.99418604651	3	5	1	0	0	0	0
284.789019717641	2.51880894433708	reward_vlpfc	287.307828661978	54	2	9	10	0	0	0	0	250	250	250	750	2000	0	BLOCKED	0.75	-1	4	1	afraid	At this moment	2	2	8	225	VLPFC	323.376956760883	0.379525593008739	n/a	n/a	n/a	n/a	1721.33802816901	0.607993850883935	n/a	n/a	n/a	n/a	1747.31764705882	3	6	1	0	0	0	0
288.308485234872	2.51873560000212	reward_vlpfc	290.827220834874	55	2	9	10	0	0	0	0	250	250	250	750	2000	0	BLOCKED	0.75	1	10	1	jittery	At this moment	5	2	8	225	VLPFC	340.269780226052	0.374531835205993	n/a	n/a	n/a	n/a	1643.24550898204	0.355880092236741	n/a	n/a	n/a	n/a	1655.138424821	2	7	1	0	0	0	0
291.828086862266	2.51864215648919	reward_vlpfc	294.346729018755	56	2	9	10	0	0	0	0	250	250	250	750	2000	0	BLOCKED	0.75	-1	2	1	hostile	At this moment	5	2	8	225	VLPFC	306.727086417377	0.425717852684145	n/a	n/a	n/a	n/a	1757.18260869565	0.554189085318985	n/a	n/a	n/a	n/a	1693.89827586207	4	8	1	0	0	0	0
295.347621845044	6.03832135964183	panas_none	301.385943204686	57	5	10	10	n/a	n/a	n/a	n/a	n/a	n/a	n/a	n/a	2000	0	BLOCKED	n/a	n/a	+	0	alert	At this moment	5	2	8	225	NONE	n/a	0	731.382350618335	0.304311411438734	-2.40123999549607e-05	13.4724916472665	1263.26092384519	0	1623.14599817755	-0.598571665564152	0.000281616852468463	82.5284077824166	1358.81783243659	3	1	0	1	0	1	1
302.369908651032	6.02160801822691	panas_none	308.391516669258	58	5	10	10	n/a	n/a	n/a	n/a	n/a	n/a	n/a	n/a	2000	0	BLOCKED	n/a	n/a	+	0	guilty	At this moment	1	2	8	225	NONE	n/a	0	1747.32135425556	-0.603795748708062	0.000173810070423742	11.646738388924	1255.10237203496	0.229823212913144	1112.5466368326	0.394552499507416	-0.000211949130210995	28.3705794539318	1262.00299401198	5	2	0	1	0	1	1
309.392373881236	6.02167184190455	panas_none	315.41404572314	59	5	10	10	n/a	n/a	n/a	n/a	n/a	n/a	n/a	n/a	2000	0	BLOCKED	n/a	n/a	+	0	upset	At this moment	2	2	8	225	NONE	n/a	0	-12.3796891866144	1.20749853436382	-0.000272242262607155	13.2749972795003	1307.80399500624	0	923.452347393572	0.484135466806696	-0.000185515483854544	14.2217351544044	1174.79707916987	2	3	0	1	0	1	1
316.398040084086	9.24081415038557	panas_none	325.638854234472	60	5	10	10	n/a	n/a	n/a	n/a	n/a	n/a	n/a	n/a	2000	0	BLOCKED	n/a	n/a	+	0	ashamed	At this moment	1	2	8	225	NONE	n/a	0	704.376800811502	0.478667361718543	-9.88348917858214e-05	11.6457060403428	1268.1872659176	0.540353574173713	n/a	n/a	n/a	n/a	1134.5602006689	8	4	0	1	0	1	1
326.623028430097	2.51870950634782	punish_vlpfc	329.141737936445	61	4	11	10	0	0	0	0	250	250	250	750	2000	0	BLOCKED	0.25	1	0	-1	proud	At this moment	1	2	8	225	VLPFC	340.720777392387	0.426966292134831	n/a	n/a	n/a	n/a	1809.46405228758	0.573405073020753	n/a	n/a	n/a	n/a	1686.11711711712	3	1	0	0	1	0	0
330.142545429416	2.51877438787375	punish_vlpfc	332.66131981729	62	4	11	10	0	0	0	0	250	250	250	750	2000	0	BLOCKED	0.25	1	4	-1	active	At this moment	2	2	8	225	VLPFC	272.916051059961	0	1928.51461649737	-0.313975728889631	9.56600962250429e-05	19.8751110910896	1696.34207240949	0.282090699461952	n/a	n/a	n/a	n/a	1619.48072805139	1	2	0	0	1	0	0
333.645344150685	2.51878214544803	punish_vlpfc	336.164126296133	63	4	11	10	0	0	0	0	250	250	250	750	2000	0	BLOCKED	0.25	1	1	-1	enthusiastic	At this moment	4	2	8	225	VLPFC	273.929824978113	0.375780274656679	n/a	n/a	n/a	n/a	1880.51	0.284396617986165	n/a	n/a	n/a	n/a	1698.14715359828	2	3	0	0	1	0	0
337.165192962609	2.51845244853945	punish_vlpfc	339.683645411149	64	4	11	10	0	0	0	0	250	250	250	750	2000	0	BLOCKED	0.25	-1	3	1	irritable	At this moment	4	2	8	225	VLPFC	323.848405718803	0	5821.83914365105	-3.78270478442883	0.000874403681423039	17.3262877429697	1777.12484394507	0.522674865488086	n/a	n/a	n/a	n/a	1736.87278582931	3	4	0	0	1	0	0
340.6845830198	2.51863933555785	punish_vlpfc	343.203222355358	65	4	11	10	0	0	0	0	250	250	250	750	2000	0	BLOCKED	0.25	1	0	-1	determined	At this moment	3	2	8	225	VLPFC	256.453772962093	0.374531835205993	n/a	n/a	n/a	n/a	1906.06786427146	0.242121445042275	1237.59299900879	0.874783040369561	-0.000332570227090799	15.502704585463	1751.30020283976	2	5	0	0	1	0	0
344.20393993099	2.51875287823384	punish_vlpfc	346.722692809224	66	4	11	10	0	0	0	0	250	250	250	750	2000	0	BLOCKED	0.25	1	8	1	hostile	At this moment	3	2	8	225	VLPFC	256.538401052356	0.374531835205993	n/a	n/a	n/a	n/a	1781.249500998	0.275941583397387	n/a	n/a	n/a	n/a	1792.92675159236	2	6	0	0	1	0	0
347.723449877962	2.51880823910983	punish_vlpfc	350.242258117072	67	4	11	10	0	0	0	0	250	250	250	750	2000	0	BLOCKED	0.25	-1	8	-1	guilty	At this moment	4	2	8	225	VLPFC	406.779696874321	0.374531835205993	n/a	n/a	n/a	n/a	1889.63073852295	0.302843966179862	n/a	n/a	n/a	n/a	1789.18302094818	2	7	0	0	1	0	0
351.243125202321	2.5187415944859	punish_vlpfc	353.761866796806	68	4	11	10	0	0	0	0	250	250	250	750	2000	0	BLOCKED	0.25	-1	10	-1	upset	At this moment	4	2	8	225	VLPFC	273.353296153247	0	1447.22880862894	0.158264244181901	2.59343409335476e-05	18.0593350447002	1895.27465667915	0.264411990776326	n/a	n/a	n/a	n/a	1739.6854754441	1	8	0	0	1	0	0
354.762649959199	6.02155970969801	panas_none	360.784209668897	69	5	12	10	n/a	n/a	n/a	n/a	n/a	n/a	n/a	n/a	2000	0	BLOCKED	n/a	n/a	+	0	active	At this moment	4	2	8	225	NONE	n/a	0.119850187265918	97.1022772458083	0.878938288131613	-0.000117514972080977	12.461056320935	1400.92624113475	0.180630284396618	980.716286352873	0.982099582366599	-0.000486702710116954	46.5552238903221	1430.1435272045	5	1	0	1	0	0	1
361.768293594569	6.02157734055072	panas_none	367.78987093512	70	5	12	10	n/a	n/a	n/a	n/a	n/a	n/a	n/a	n/a	2000	0	BLOCKED	n/a	n/a	+	0	excited	At this moment	4	2	8	225	NONE	n/a	0.373283395755306	n/a	n/a	n/a	n/a	1526.7171314741	0	1468.14791434041	0.340333057871508	-0.00018799345744329	18.613542499059	1595.1521906226	3	2	0	1	0	0	1
368.773911136284	6.02162635431438	panas_none	374.795537490599	71	5	12	10	n/a	n/a	n/a	n/a	n/a	n/a	n/a	n/a	2000	0	BLOCKED	n/a	n/a	+	0	afraid	At this moment	1	2	8	225	NONE	n/a	0.52059925093633	n/a	n/a	n/a	n/a	1255.76822916667	0	1252.41664933393	-0.0957934554691291	1.36133556108249e-05	15.6577393181575	1182.83166794773	4	3	0	1	0	0	1
375.796361909181	12.7771784855649	panas_none	388.573540394746	72	5	12	10	n/a	n/a	n/a	n/a	n/a	n/a	n/a	n/a	2000	0	BLOCKED	n/a	n/a	+	0	distressed	At this moment	1	2	8	225	NONE	n/a	0.365792759051186	n/a	n/a	n/a	n/a	1556.92125984252	0.259800153727902	n/a	n/a	n/a	n/a	1456.005192108	8	4	0	1	0	0	1
389.557515361764	2.51872890027613	reward_rtpj	392.07624426204	73	1	13	10	750	250	250	250	0	0	0	0	2000	0	BLOCKED	0.75	1	7	1	guilty	At this moment	4	2	8	225	RTPJ	306.199571356177	0.47565543071161	n/a	n/a	n/a	n/a	1675.94285714286	0.635664873174481	n/a	n/a	n/a	n/a	1529.45147679325	3	1	1	0	0	0	0
393.060307735927	2.51883856416498	reward_rtpj	395.579146300092	74	1	13	10	750	250	250	250	0	0	0	0	2000	0	BLOCKED	0.75	1	9	1	proud	At this moment	4	2	8	225	RTPJ	591.436766251922	0.374531835205993	n/a	n/a	n/a	n/a	1942.70858283433	0.455803228285934	n/a	n/a	n/a	n/a	1933.31638418079	3	2	1	0	0	0	0
396.579897021733	2.51869857521353	reward_rtpj	399.098595596947	75	1	13	10	750	250	250	250	0	0	0	0	2000	0	BLOCKED	0.75	1	1	-1	determined	At this moment	3	2	8	225	RTPJ	641.341594912112	0.374531835205993	n/a	n/a	n/a	n/a	1908.52095808383	0.427363566487317	n/a	n/a	n/a	n/a	1786.25234899329	4	3	1	0	0	0	0
400.099443993486	2.51876909862455	reward_rtpj	402.618213092111	76	1	13	10	750	250	250	250	0	0	0	0	2000	0	BLOCKED	0.75	1	0	-1	alert	At this moment	1	2	8	225	RTPJ	240.720001630485	0.374531835205993	n/a	n/a	n/a	n/a	1837.20958083832	0.232129131437356	1346.96924463944	0.767277407687357	-0.000321996733713728	22.5890682142949	1759.25425425425	2	4	1	0	0	0	0
403.618900695294	2.51881000219288	reward_rtpj	406.137710697487	77	1	13	10	750	250	250	250	0	0	0	0	2000	0	BLOCKED	0.75	-1	3	1	strong	At this moment	1	2	8	225	RTPJ	308.409774817526	0	4998.71276776285	-2.95214407954983	0.000677291911599674	18.8842643082908	1819.87390761548	0.260568793235972	n/a	n/a	n/a	n/a	1778.13201663202	1	5	1	0	0	0	0
407.12186020992	2.51870280662177	reward_rtpj	409.640563016541	78	1	13	10	750	250	250	250	0	0	0	0	2000	0	BLOCKED	0.75	1	7	1	jittery	At this moment	3	2	8	225	RTPJ	556.812948666513	0.374531835205993	n/a	n/a	n/a	n/a	1779.01596806387	0.461183704842429	n/a	n/a	n/a	n/a	1755.65192582026	3	6	1	0	0	0	0
410.641378972314	2.51868588101121	reward_rtpj	413.160064853325	79	1	13	10	750	250	250	250	0	0	0	0	2000	0	BLOCKED	0.75	-1	4	1	guilty	At this moment	1	2	8	225	RTPJ	240.246789604425	0.399500624219725	n/a	n/a	n/a	n/a	1676.22869022869	0.455034588777863	n/a	n/a	n/a	n/a	1680.39915373766	3	7	1	0	0	0	0
414.144088128865	2.51877579834309	reward_rtpj	416.662863927208	80	1	13	10	750	250	250	250	0	0	0	0	2000	0	BLOCKED	0.75	-1	3	1	excited	At this moment	1	2	8	225	RTPJ	273.634331919253	0.374531835205993	n/a	n/a	n/a	n/a	1732.80439121756	0.492697924673328	n/a	n/a	n/a	n/a	1661.03787878788	3	8	1	0	0	0	0
417.664135464177	6.02122401829808	panas_none	423.685359482475	81	5	14	10	n/a	n/a	n/a	n/a	n/a	n/a	n/a	n/a	2000	0	BLOCKED	n/a	n/a	+	0	distressed	At this moment	2	2	8	225	NONE	n/a	0	1376.82261178311	-0.507214481462676	0.00019916285604614	20.6004967809183	1200.50062421973	0.189853958493467	894.627441013258	1.24544581783893	-0.000660341181947616	45.2915308616665	1423.33965844402	3	1	0	1	0	1	0
424.669381347545	6.02159990803892	panas_none	430.690981255583	82	5	14	10	n/a	n/a	n/a	n/a	n/a	n/a	n/a	n/a	2000	0	BLOCKED	n/a	n/a	+	0	hostile	At this moment	3	2	8	225	NONE	n/a	0.413233458177278	n/a	n/a	n/a	n/a	1360.51914893617	0.229823212913144	1556.03362281537	-0.237781447856479	3.36390673119865e-05	19.3272004463647	1368.00399201597	7	2	0	1	0	1	0
431.69184375681	6.02151563256979	panas_none	437.71335938938	83	5	14	10	n/a	n/a	n/a	n/a	n/a	n/a	n/a	n/a	2000	0	BLOCKED	n/a	n/a	+	0	upset	At this moment	2	2	8	225	NONE	n/a	0.373283395755306	n/a	n/a	n/a	n/a	1375.34860557769	0	1318.07783554839	-0.213382357940384	0.0001863073869942	16.5547902533701	1296.75480399693	4	3	0	1	0	1	0
438.718742440775	7.06784034065902	panas_none	445.786582781434	84	5	14	10	n/a	n/a	n/a	n/a	n/a	n/a	n/a	n/a	2000	0	BLOCKED	n/a	n/a	+	0	afraid	At this moment	1	2	8	225	NONE	n/a	0.425717852684145	n/a	n/a	n/a	n/a	1652.82608695652	0.306687163720215	n/a	n/a	n/a	n/a	1501.35698447894	4	4	0	1	0	1	0
446.78736065457	2.51880436032269	reward_vlpfc	449.306165014893	85	2	15	10	0	0	0	0	250	250	250	750	2000	0	BLOCKED	0.75	-1	4	1	strong	At this moment	5	2	8	225	VLPFC	557.30802295357	0	4747.76900294253	-2.99876842340431	0.00071573936631105	25.0636353726658	1644.71036204744	0.498078401229823	n/a	n/a	n/a	n/a	1560.28637059724	2	1	1	0	0	0	0
450.290301480502	2.51877262479064	reward_vlpfc	452.809074105293	86	2	15	10	0	0	0	0	250	250	250	750	2000	0	BLOCKED	0.75	1	4	-1	inspired	At this moment	2	2	8	225	VLPFC	291.183728270233	0.374531835205993	n/a	n/a	n/a	n/a	1861.00798403194	0.252882398155265	n/a	n/a	n/a	n/a	1624.67386831276	2	2	1	0	0	0	0
453.809966226339	2.51858362207565	reward_vlpfc	456.328549848415	87	2	15	10	0	0	0	0	250	250	250	750	2000	0	BLOCKED	0.75	1	9	1	alert	At this moment	2	2	8	225	VLPFC	274.333218850195	0.448189762796504	n/a	n/a	n/a	n/a	1739.02488687783	0.292083013066872	n/a	n/a	n/a	n/a	1634.50380021716	2	3	1	0	0	0	0
457.32928752321	2.51872960551083	reward_vlpfc	459.848017128721	88	2	15	10	0	0	0	0	250	250	250	750	2000	0	BLOCKED	0.75	-1	10	-1	excited	At this moment	5	2	8	225	VLPFC	274.006342880428	0.374531835205993	n/a	n/a	n/a	n/a	1748.93612774451	0.33358954650269	n/a	n/a	n/a	n/a	1661.54325259516	2	4	1	0	0	0	0
460.848760445401	2.51898313714565	reward_vlpfc	463.367743582547	89	2	15	10	0	0	0	0	250	250	250	750	2000	0	BLOCKED	0.75	-1	2	1	upset	At this moment	4	2	8	225	VLPFC	323.329353459179	0.420724094881398	n/a	n/a	n/a	n/a	1587.78663793103	0.245964642582629	1230.38712869329	0.552053304070578	-0.00022098792328974	16.4763712461706	1535.3251783894	2	5	1	0	0	0	0
464.368423428155	2.51866578183319	reward_vlpfc	466.887089209989	90	2	15	10	0	0	0	0	250	250	250	750	2000	0	BLOCKED	0.75	-1	3	1	active	At this moment	4	2	8	225	VLPFC	289.973546668887	0.374531835205993	n/a	n/a	n/a	n/a	1661.5369261477	0.285165257494235	n/a	n/a	n/a	n/a	1705.58602150538	2	6	1	0	0	0	0
467.871244011678	2.51867882867157	reward_vlpfc	470.389922840349	91	2	15	10	0	0	0	0	250	250	250	750	2000	0	BLOCKED	0.75	-1	3	1	guilty	At this moment	5	2	8	225	VLPFC	356.499683707952	0.374531835205993	n/a	n/a	n/a	n/a	1698.51896207585	0.32205995388163	n/a	n/a	n/a	n/a	1692.84467120181	2	7	1	0	0	0	0
471.390656283744	2.51869610688834	reward_vlpfc	473.909352390632	92	2	15	10	0	0	0	0	250	250	250	750	2000	0	BLOCKED	0.75	1	8	1	alert	At this moment	2	2	8	225	VLPFC	373.543427251279	0.374531835205993	n/a	n/a	n/a	n/a	1756.52295409182	0.475019215987702	n/a	n/a	n/a	n/a	1656.64714494876	3	8	1	0	0	0	0
474.893848525599	6.02129842049629	panas_none	480.915146946095	93	5	16	10	n/a	n/a	n/a	n/a	n/a	n/a	n/a	n/a	2000	0	BLOCKED	n/a	n/a	+	0	distressed	At this moment	3	2	8	225	NONE	n/a	0	-685.280451444273	1.61931525347348	-0.000343244011289388	15.159325951925	1183.43945068664	0.170637970791699	1773.47233199409	-1.42228392675711	0.000911187352558674	68.9648130346385	1306.75996292864	6	1	0	1	0	1	1
481.915869458362	6.02179666833581	panas_none	487.937666126698	94	5	16	10	n/a	n/a	n/a	n/a	n/a	n/a	n/a	n/a	2000	0	BLOCKED	n/a	n/a	+	0	active	At this moment	5	2	8	225	NONE	n/a	0.00374531835205993	3071.2992883727	-1.81160099766554	0.000436520249497478	13.534175605228	1215.00751879699	0.229823212913144	1192.72333099244	0.00334588248842201	3.15674169087945e-05	21.559401575696	1220.81936127745	4	2	0	1	0	1	1
488.938488429584	6.02145321935416	panas_none	494.959941648938	95	5	16	10	n/a	n/a	n/a	n/a	n/a	n/a	n/a	n/a	2000	0	BLOCKED	n/a	n/a	+	0	scared	At this moment	1	2	8	225	NONE	n/a	0	2251.70190590009	-1.16686726071711	0.000323986752324521	21.9167443606949	1247.34831460674	0.157571099154497	1458.41161953409	-0.37602476390366	0.00017319220487729	20.5823148388043	1274.8549270073	4	3	0	1	0	1	1
495.944116902418	6.08823218278587	panas_none	502.032349085204	96	5	16	10	n/a	n/a	n/a	n/a	n/a	n/a	n/a	n/a	2000	0	BLOCKED	n/a	n/a	+	0	inspired	At this moment	2	2	8	225	NONE	n/a	0.456928838951311	n/a	n/a	n/a	n/a	1631.8183908046	0.230591852421214	1489.58906738443	0.0431683264642028	6.19567143958019e-05	19.5862432824066	1585.99400599401	7	4	0	1	0	1	1
