onset	duration	trial_type	offset	trial	block	blockCntr	frequency	amplitude_1	amplitude_2	amplitude_3	amplitude_4	amplitude_5	amplitude_6	amplitude_7	amplitude_8	transition	sham	mode	rewardFraction	guess	outcome	correct	word	when	answer	runNr	scanNr	subjectNr	target	reactionTime	outcomeEyeClosed	outcomeParms_1	outcomeParms_2	outcomeParms_3	outcomeSigma	outcomePupilArea	guessEyeClosed	guessParms_1	guessParms_2	guessParms_3	guessSigma	guessPupilArea	nrBlinks	trialInBlock	isReward	isPanas	isPunish	beforePanasReward	beforePanasVLPFC
20.306411494188	2.51763049826771	punish_vlpfc	22.8240419924557	1	4	1	10	0	0	0	0	250	250	250	750	2000	0	BLOCKED	0.25	-1	4	1	hostile	At this moment	3	3	12	225	VLPFC	756.385012649	0.602996254681648	n/a	n/a	n/a	n/a	1747.61320754717	0.230591852421214	1587.08379357226	0.0494727403899214	4.16533660747058e-05	16.9897087311191	1662.23376623377	2	1	0	0	1	0	0
23.808120628871	2.51878849255294	punish_vlpfc	26.326909121424	2	4	1	10	0	0	0	0	250	250	250	750	2000	0	BLOCKED	0.25	-1	8	-1	distressed	At this moment	3	3	12	225	VLPFC	440.556175768375	0.383270911360799	n/a	n/a	n/a	n/a	1955.7004048583	0.471944657955419	n/a	n/a	n/a	n/a	1782.93886462882	3	2	0	0	1	0	0
27.311018788144	2.51872396364063	punish_vlpfc	29.8297427517846	3	4	1	10	0	0	0	0	250	250	250	750	2000	0	BLOCKED	0.25	-1	6	-1	active	At this moment	2	3	12	225	VLPFC	523.803411774337	0.374531835205993	n/a	n/a	n/a	n/a	1793.94810379242	0.590315142198309	n/a	n/a	n/a	n/a	1679.12195121951	3	3	0	0	1	0	0
30.8305840959847	2.51879378180951	punish_vlpfc	33.3493778777942	4	4	1	10	0	0	0	0	250	250	250	750	2000	0	BLOCKED	0.25	1	4	-1	excited	At this moment	3	3	12	225	VLPFC	208.727764852345	0	1943.38272004641	-0.189076231044367	7.4310890404898e-05	15.0350538905245	1877.77528089888	0.449654112221368	n/a	n/a	n/a	n/a	1717.87988826816	2	4	0	0	1	0	0
34.3501025057659	2.51872361102701	punish_vlpfc	36.8688261167929	5	4	1	10	0	0	0	0	250	250	250	750	2000	0	BLOCKED	0.25	-1	10	-1	strong	At this moment	5	3	12	225	VLPFC	323.835711501539	0.410736579275905	n/a	n/a	n/a	n/a	1771.71398305085	0.583397386625673	n/a	n/a	n/a	n/a	1683.36715867159	6	5	0	0	1	0	0
37.8528913537636	2.51875569917262	punish_vlpfc	40.3716470529363	6	4	1	10	0	0	0	0	250	250	250	750	2000	0	BLOCKED	0.25	1	7	1	inspired	At this moment	5	3	12	225	VLPFC	123.262920416892	0.387016229712859	n/a	n/a	n/a	n/a	1640.97352342159	0.507302075326672	n/a	n/a	n/a	n/a	1610.67706708268	3	6	0	0	1	0	0
41.3724816974178	2.51870562755316	punish_vlpfc	43.891187324971	7	4	1	10	0	0	0	0	250	250	250	750	2000	0	BLOCKED	0.25	1	4	-1	hostile	At this moment	3	3	12	225	VLPFC	257.219304509461	0.374531835205993	n/a	n/a	n/a	n/a	1795.63872255489	0.504227517294389	n/a	n/a	n/a	n/a	1699.73023255814	4	7	0	0	1	0	0
44.8920357215107	2.51869575428217	punish_vlpfc	47.4107314757928	8	4	1	10	0	0	0	0	250	250	250	750	2000	0	BLOCKED	0.25	1	3	-1	nervous	At this moment	2	3	12	225	VLPFC	240.758436895907	0.374531835205993	n/a	n/a	n/a	n/a	1697.4750499002	0.229054573405073	952.541791338099	0.967835139072129	-0.000381637088743336	17.5425611836099	1505.13659022931	2	8	0	0	1	0	0
48.4222616996616	6.01090186032653	panas_none	54.4331635599881	9	5	2	10	n/a	n/a	n/a	n/a	n/a	n/a	n/a	n/a	2000	0	BLOCKED	n/a	n/a	+	0	afraid	At this moment	1	3	12	225	NONE	n/a	0.034956304619226	658.182307664709	0.219463388945814	1.8894617904718e-05	11.6772536417979	1199.02716688228	0.170637970791699	1732.21516682681	-1.64724628500124	0.00111261961275123	45.7013158115429	1225.48378127896	5	1	0	1	0	0	1
55.4172661743686	6.02144087775796	panas_none	61.4387070521265	10	5	2	10	n/a	n/a	n/a	n/a	n/a	n/a	n/a	n/a	2000	0	BLOCKED	n/a	n/a	+	0	jittery	At this moment	3	3	12	225	NONE	n/a	0	3437.19854763181	-2.10456803917124	0.000518250598231937	15.6918063421164	1330.57428214732	0.229823212913144	1584.95710485697	-0.102822812423617	-5.36334228264317e-05	43.3846411341579	1425.30938123753	3	2	0	1	0	0	1
62.4232074185014	6.02124094390869	panas_none	68.4444483624101	11	5	2	10	n/a	n/a	n/a	n/a	n/a	n/a	n/a	n/a	2000	0	BLOCKED	n/a	n/a	+	0	distressed	At this moment	3	3	12	225	NONE	n/a	0.0574282147315855	-215.640563084829	1.17844614063343	-0.000255484382237138	15.5344853780999	1117.83841059603	0.0476556495003843	1030.31921879278	0.0558781419364699	-1.93454742743389e-05	12.7898184568712	1060.46004842615	3	3	0	1	0	0	1
69.4452036680654	12.5103299155384	panas_none	81.9555335836038	12	5	2	10	n/a	n/a	n/a	n/a	n/a	n/a	n/a	n/a	2000	0	BLOCKED	n/a	n/a	+	0	proud	At this moment	3	3	12	225	NONE	n/a	0.393258426966292	n/a	n/a	n/a	n/a	1755.65226337449	0.328209069946195	n/a	n/a	n/a	n/a	1495.50800915332	11	4	0	1	0	0	1
82.9562261234224	2.51900006277114	reward_rtpj	85.4752261861935	13	1	3	10	750	250	250	250	0	0	0	0	2000	0	BLOCKED	0.75	1	8	1	attentive	At this moment	5	3	12	225	RTPJ	290.178769774735	0.575530586766542	n/a	n/a	n/a	n/a	1681.22941176471	0.501152959262106	n/a	n/a	n/a	n/a	1509.46224961479	4	1	1	0	0	0	0
86.47587817505	2.51866190305353	reward_rtpj	88.9945400781035	14	1	3	10	750	250	250	250	0	0	0	0	2000	0	BLOCKED	0.75	1	1	-1	jittery	At this moment	1	3	12	225	RTPJ	272.87373701483	0.374531835205993	n/a	n/a	n/a	n/a	1894.4750499002	0.279016141429669	n/a	n/a	n/a	n/a	1730.79424307036	2	2	1	0	0	0	0
89.9953500393927	2.51871197466552	reward_rtpj	92.5140620140582	15	1	3	10	750	250	250	250	0	0	0	0	2000	0	BLOCKED	0.75	-1	0	1	guilty	At this moment	3	3	12	225	RTPJ	573.596813470125	0.399500624219725	n/a	n/a	n/a	n/a	1748.59875259875	0.23674096848578	1243.72762313485	0.700662427951415	-0.000245310632212165	15.1911846296635	1679.92849949648	2	3	1	0	0	0	0
93.5149234574214	2.51859314273298	reward_rtpj	96.0335166001543	16	1	3	10	750	250	250	250	0	0	0	0	2000	0	BLOCKED	0.75	-1	1	1	determined	At this moment	5	3	12	225	RTPJ	440.584032520652	0.383270911360799	n/a	n/a	n/a	n/a	1629.97165991903	0.54803996925442	n/a	n/a	n/a	n/a	1645.40136054422	3	4	1	0	0	0	0
97.0345614043772	2.51858115375042	reward_rtpj	99.5531425581276	17	1	3	10	750	250	250	250	0	0	0	0	2000	0	BLOCKED	0.75	1	7	1	inspired	At this moment	5	3	12	225	RTPJ	322.763755768538	0.420724094881398	n/a	n/a	n/a	n/a	1576.6400862069	0.460415065334358	n/a	n/a	n/a	n/a	1509.28205128205	3	5	1	0	0	0	0
100.553935946412	2.51876416198165	reward_rtpj	103.072700108394	18	1	3	10	750	250	250	250	0	0	0	0	2000	0	BLOCKED	0.75	-1	4	1	excited	At this moment	3	3	12	225	RTPJ	274.289494343102	0.443196004993758	n/a	n/a	n/a	n/a	1570.83632286996	0.452728670253651	n/a	n/a	n/a	n/a	1567.02949438202	3	6	1	0	0	0	0
104.073424736366	2.51870351185649	reward_rtpj	106.592128248222	19	1	3	10	750	250	250	250	0	0	0	0	2000	0	BLOCKED	0.75	1	4	-1	interested	At this moment	5	3	12	225	RTPJ	407.179917186499	0.382022471910112	n/a	n/a	n/a	n/a	1672.50707070707	0.338201383551115	n/a	n/a	n/a	n/a	1550.21835075494	2	7	1	0	0	0	0
107.592906826593	2.51879060825706	reward_rtpj	110.11169743485	20	1	3	10	750	250	250	250	0	0	0	0	2000	0	BLOCKED	0.75	-1	4	1	active	At this moment	2	3	12	225	RTPJ	356.849127173424	0.624219725343321	n/a	n/a	n/a	n/a	1656.82724252492	0.541890853189854	n/a	n/a	n/a	n/a	1627.86241610738	4	8	1	0	0	0	0
111.112543010458	6.02153678959608	panas_none	117.134079800054	21	5	4	10	n/a	n/a	n/a	n/a	n/a	n/a	n/a	n/a	2000	0	BLOCKED	n/a	n/a	+	0	attentive	At this moment	5	3	12	225	NONE	n/a	0.133583021223471	170.414005754176	0.614914273018521	-7.42159792170507e-05	11.4522563109566	1115.05331412104	0	1367.83776955953	-0.242950701078166	4.15122227649988e-05	63.966694385272	1199.02690238278	5	1	0	1	0	1	0
118.134878124982	6.02163164356351	panas_none	124.156509768546	22	5	4	10	n/a	n/a	n/a	n/a	n/a	n/a	n/a	n/a	2000	0	BLOCKED	n/a	n/a	+	0	ashamed	At this moment	1	3	12	225	NONE	n/a	0	3853.55879058233	-2.71911825889939	0.000687483500067001	13.3712496020364	1211.6354556804	0	1177.16788116269	0.161961347981456	-9.2140606060779e-05	16.6889828016792	1235.41813989239	3	2	0	1	0	1	0
125.157355696775	6.02186860220134	panas_none	131.179224298976	23	5	4	10	n/a	n/a	n/a	n/a	n/a	n/a	n/a	n/a	2000	0	BLOCKED	n/a	n/a	+	0	enthusiastic	At this moment	4	3	12	225	NONE	n/a	0.355805243445693	n/a	n/a	n/a	n/a	957.083333333333	0	1168.25189428755	-0.108311583861036	-1.63512094108585e-06	13.2858312421838	1074.80476556495	3	3	0	1	0	1	0
132.17968234849	10.942175393112	panas_none	143.121857741602	24	5	4	10	n/a	n/a	n/a	n/a	n/a	n/a	n/a	n/a	2000	0	BLOCKED	n/a	n/a	+	0	distressed	At this moment	5	3	12	225	NONE	n/a	0.374531835205993	n/a	n/a	n/a	n/a	1546.56487025948	0.334358186010761	n/a	n/a	n/a	n/a	1228.05311778291	6	4	0	1	0	1	0
144.122798171192	2.51867071846871	punish_rtpj	146.641468889661	25	3	5	10	750	250	250	250	0	0	0	0	2000	0	BLOCKED	0.25	-1	6	-1	attentive	At this moment	4	3	12	225	RTPJ	323.715116478503	0.405742821473159	n/a	n/a	n/a	n/a	1425.02521008403	0.230591852421214	613.022654426068	0.693017560453648	-0.000161965383381256	13.8931057254318	1112.45054945055	2	1	0	0	1	0	0
147.642229131952	2.51870492232592	punish_rtpj	150.160934054278	26	3	5	10	750	250	250	250	0	0	0	0	2000	0	BLOCKED	0.25	1	4	-1	afraid	At this moment	4	3	12	225	RTPJ	573.293562829494	0.411985018726592	n/a	n/a	n/a	n/a	1626.55201698514	0.385857033051499	n/a	n/a	n/a	n/a	1484.22027534418	2	2	0	0	1	0	0
151.144997175537	2.55217427179218	punish_rtpj	153.697171447329	27	3	5	10	750	250	250	250	0	0	0	0	2000	0	BLOCKED	0.25	-1	8	-1	ashamed	At this moment	1	3	12	225	RTPJ	257.38573974371	0.639200998751561	n/a	n/a	n/a	n/a	1694.90657439446	0.551114527286703	n/a	n/a	n/a	n/a	1638.0102739726	3	3	0	0	1	0	0
154.697934863172	2.51873418954017	punish_rtpj	157.216669052713	28	3	5	10	750	250	250	250	0	0	0	0	2000	0	BLOCKED	0.25	1	9	1	jittery	At this moment	5	3	12	225	RTPJ	423.466239392757	0.387016229712859	n/a	n/a	n/a	n/a	1681.84521384929	0.304381245196003	n/a	n/a	n/a	n/a	1644.32486187845	2	4	0	0	1	0	0
158.217493471302	2.51873066335915	punish_rtpj	160.736224134661	29	3	5	10	750	250	250	250	0	0	0	0	2000	0	BLOCKED	0.25	1	6	1	irritable	At this moment	5	3	12	225	RTPJ	557.854579329491	0.374531835205993	n/a	n/a	n/a	n/a	1681.49301397206	0.334358186010761	n/a	n/a	n/a	n/a	1625.64203233256	2	5	0	0	1	0	0
161.73695264142	2.51873560000212	punish_rtpj	164.255688241422	30	3	5	10	750	250	250	250	0	0	0	0	2000	0	BLOCKED	0.25	-1	8	-1	nervous	At this moment	1	3	12	225	RTPJ	356.461953677237	0.374531835205993	n/a	n/a	n/a	n/a	1694.90618762475	0.332052267486549	n/a	n/a	n/a	n/a	1555.15765247411	2	6	0	0	1	0	0
165.256550037414	2.51874194711448	punish_rtpj	167.775291984528	31	3	5	10	750	250	250	250	0	0	0	0	2000	0	BLOCKED	0.25	-1	9	-1	attentive	At this moment	1	3	12	225	RTPJ	272.895951889455	0.374531835205993	n/a	n/a	n/a	n/a	1736.24550898204	0.448885472713297	n/a	n/a	n/a	n/a	1577.28172942817	3	7	0	0	1	0	0
168.776087841131	2.51878320330383	punish_rtpj	171.294871044435	32	3	5	10	750	250	250	250	0	0	0	0	2000	0	BLOCKED	0.25	1	1	-1	hostile	At this moment	2	3	12	225	RTPJ	557.259361803532	0.374531835205993	n/a	n/a	n/a	n/a	1795.66067864271	0.3228285933897	n/a	n/a	n/a	n/a	1606.83995459705	2	8	0	0	1	0	0
172.295530085638	6.02162882263212	panas_none	178.31715890827	33	5	6	10	n/a	n/a	n/a	n/a	n/a	n/a	n/a	n/a	2000	0	BLOCKED	n/a	n/a	+	0	strong	At this moment	4	3	12	225	NONE	n/a	0.975031210986267	n/a	n/a	n/a	n/a	1434.8	0	1517.59414302548	-0.369332151442947	0.000197659744453192	76.5961895388091	1376.77940046118	7	1	0	1	0	0	0
179.318059492134	6.02149976480752	panas_none	185.339559256941	34	5	6	10	n/a	n/a	n/a	n/a	n/a	n/a	n/a	n/a	2000	0	BLOCKED	n/a	n/a	+	0	jittery	At this moment	3	3	12	225	NONE	n/a	0.395755305867665	n/a	n/a	n/a	n/a	1086.96487603306	0	1205.5475972568	-0.420997316410248	0.000139528048453893	23.0752537602182	968.548039969254	4	2	0	1	0	0	0
186.340449262291	6.02150329097358	panas_none	192.361952553265	35	5	6	10	n/a	n/a	n/a	n/a	n/a	n/a	n/a	n/a	2000	0	BLOCKED	n/a	n/a	+	0	enthusiastic	At this moment	3	3	12	225	NONE	n/a	0	2834.97372150277	-1.96332547810464	0.000479972458987157	13.5924897681374	854.334581772784	0.229823212913144	906.454287873539	0.310747203403883	-0.000155270311776341	21.3542291438002	1031.41616766467	4	3	0	1	0	0	0
193.362766745962	11.2591209680885	panas_none	204.621887714051	36	5	6	10	n/a	n/a	n/a	n/a	n/a	n/a	n/a	n/a	2000	0	BLOCKED	n/a	n/a	+	0	inspired	At this moment	1	3	12	225	NONE	n/a	0.277153558052434	n/a	n/a	n/a	n/a	1330.60967184801	0.278247501921599	n/a	n/a	n/a	n/a	1360.53567625133	6	4	0	1	0	0	0
205.62275021527	2.51865555594117	punish_rtpj	208.141405771211	37	3	7	10	750	250	250	250	0	0	0	0	2000	0	BLOCKED	0.25	-1	8	-1	excited	At this moment	4	3	12	225	RTPJ	390.599865026772	0	1822.04911551489	-0.46181725352686	0.000144440175989668	16.1463146904492	1496.53183520599	0.377401998462721	n/a	n/a	n/a	n/a	1356.18518518519	1	1	0	0	1	0	0
209.125482291922	2.51876592507213	punish_rtpj	211.644248216994	38	3	7	10	750	250	250	250	0	0	0	0	2000	0	BLOCKED	0.25	-1	0	1	active	At this moment	5	3	12	225	RTPJ	240.210117436945	0	5585.3621786699	-4.02097085188738	0.000944744057375894	25.0119808349712	1357.80898876404	0.255188316679477	n/a	n/a	n/a	n/a	1348.66666666667	1	2	0	0	1	0	0
212.645077219598	2.51872184794397	punish_rtpj	215.163799067542	39	3	7	10	750	250	250	250	0	0	0	0	2000	0	BLOCKED	0.25	-1	10	-1	jittery	At this moment	1	3	12	225	RTPJ	373.069862604141	0	2029.33231084294	-0.609168001750691	0.00021178187268335	15.2550048330228	1694.65667915106	0.317448116833205	n/a	n/a	n/a	n/a	1564.76351351351	1	3	0	0	1	0	0
216.151194067009	2.51553842149676	punish_rtpj	218.666732488506	40	3	7	10	750	250	250	250	0	0	0	0	2000	0	BLOCKED	0.25	1	9	1	enthusiastic	At this moment	2	3	12	225	RTPJ	269.837351873517	0	3716.24585052687	-2.07874730461651	0.000496750378564136	17.2609766123427	1567.50312109863	0.503458877786318	n/a	n/a	n/a	n/a	1565.25696594427	2	4	0	0	1	0	0
219.65074165938	2.51895034376534	punish_rtpj	222.169692003146	41	3	7	10	750	250	250	250	0	0	0	0	2000	0	BLOCKED	0.25	-1	7	-1	alert	At this moment	1	3	12	225	RTPJ	440.299470581114	0.401997503121099	n/a	n/a	n/a	n/a	1570.12317327766	0.396617986164489	n/a	n/a	n/a	n/a	1512.42292993631	2	5	0	0	1	0	0
223.170381369412	2.51864674051106	punish_rtpj	225.689028109923	42	3	7	10	750	250	250	250	0	0	0	0	2000	0	BLOCKED	0.25	-1	7	-1	active	At this moment	2	3	12	225	RTPJ	306.213323421776	0.634207240948814	n/a	n/a	n/a	n/a	1724.90784982935	0.348193697156034	n/a	n/a	n/a	n/a	1567.86556603774	2	6	0	0	1	0	0
226.689834897667	2.51875358346851	punish_rtpj	229.208588481136	43	3	7	10	750	250	250	250	0	0	0	0	2000	0	BLOCKED	0.25	-1	10	-1	inspired	At this moment	4	3	12	225	RTPJ	373.424242697656	0.459425717852684	n/a	n/a	n/a	n/a	1726.21478060046	0.38739431206764	n/a	n/a	n/a	n/a	1596.6599749059	2	7	0	0	1	0	0
230.20928772068	2.51871303251386	punish_rtpj	232.728000753194	44	3	7	10	750	250	250	250	0	0	0	0	2000	0	BLOCKED	0.25	-1	8	-1	strong	At this moment	5	3	12	225	RTPJ	173.106041103601	0.374531835205993	n/a	n/a	n/a	n/a	1759.39121756487	0.59185242121445	n/a	n/a	n/a	n/a	1670.6516007533	4	8	0	0	1	0	0
233.728846681416	6.02159602925181	panas_none	239.750442710668	45	5	8	10	n/a	n/a	n/a	n/a	n/a	n/a	n/a	n/a	2000	0	BLOCKED	n/a	n/a	+	0	nervous	At this moment	1	3	12	225	NONE	n/a	0	-540.102525583294	1.51980280535282	-0.000298072922335765	14.7917823102941	1320.57927590512	0.187548039969254	1786.34638456896	-1.55402363909898	0.0010467698575493	44.2579076858579	1308.5752128666	4	1	0	1	0	0	0
240.751196605846	6.02172967110576	panas_none	246.772926276952	46	5	8	10	n/a	n/a	n/a	n/a	n/a	n/a	n/a	n/a	2000	0	BLOCKED	n/a	n/a	+	0	interested	At this moment	2	3	12	225	NONE	n/a	0.17103620474407	2492.06494506294	-1.25431531367119	0.000319456052711177	13.0821939759783	1286.96234939759	0	1407.40912470073	-0.00936478246453193	5.20683308436057e-05	20.4246258962812	1443.43043812452	3	2	0	1	0	0	0
247.773732712075	6.02153678958862	panas_none	253.795269501664	47	5	8	10	n/a	n/a	n/a	n/a	n/a	n/a	n/a	n/a	2000	0	BLOCKED	n/a	n/a	+	0	determined	At this moment	4	3	12	225	NONE	n/a	0.373283395755306	n/a	n/a	n/a	n/a	1402.7390438247	0	1519.83978510226	-0.342571938622341	0.000171640406361933	18.8402620620785	1376.25365103766	5	3	0	1	0	0	0
254.795944058016	7.20594773228464	panas_none	262.001891790301	48	5	8	10	n/a	n/a	n/a	n/a	n/a	n/a	n/a	n/a	2000	0	BLOCKED	n/a	n/a	+	0	alert	At this moment	4	3	12	225	NONE	n/a	0.141073657927591	2257.89158109578	-0.873533373622002	0.000213144788206329	15.1869891314617	1370.60901162791	0.568793235972329	n/a	n/a	n/a	n/a	1315.6559714795	7	4	0	1	0	0	0
263.002646390721	2.5187690986171	punish_vlpfc	265.521415489338	49	4	9	10	0	0	0	0	250	250	250	750	2000	0	BLOCKED	0.25	-1	4	1	excited	At this moment	1	3	12	225	VLPFC	391.595302857459	0.530586766541823	n/a	n/a	n/a	n/a	1480.54521276596	0.404304381245196	n/a	n/a	n/a	n/a	1460.54451612903	2	1	0	0	1	0	0
266.508728329048	2.51551091736553	punish_vlpfc	269.024239246413	50	4	9	10	0	0	0	0	250	250	250	750	2000	0	BLOCKED	0.25	-1	2	1	active	At this moment	2	3	12	225	VLPFC	519.702475860715	0.470661672908864	n/a	n/a	n/a	n/a	1513.4929245283	0.313604919292852	n/a	n/a	n/a	n/a	1503.42665173572	2	2	0	0	1	0	0
270.025115499705	2.51872925289723	punish_vlpfc	272.543844752602	51	4	9	10	0	0	0	0	250	250	250	750	2000	0	BLOCKED	0.25	-1	8	-1	irritable	At this moment	4	3	12	225	VLPFC	372.924584388733	0	2838.39518621341	-1.35469549592837	0.00036739720171705	16.6293778432156	1633.01997503121	0.302075326671791	n/a	n/a	n/a	n/a	1539.44052863436	1	3	0	0	1	0	0
273.527961471654	2.51870809587837	punish_vlpfc	276.046669567533	52	4	9	10	0	0	0	0	250	250	250	750	2000	0	BLOCKED	0.25	-1	6	-1	afraid	At this moment	4	3	12	225	VLPFC	273.089891247451	0.446941323345818	n/a	n/a	n/a	n/a	1656.73363431151	0.273635664873174	n/a	n/a	n/a	n/a	1602.82433862434	2	4	0	0	1	0	0
277.030771476671	2.51903638231755	punish_vlpfc	279.549807858989	53	4	9	10	0	0	0	0	250	250	250	750	2000	0	BLOCKED	0.25	1	4	-1	strong	At this moment	5	3	12	225	VLPFC	723.696357250214	0	-178.156936348686	1.59667051675439	-0.000315030917831202	18.1539969056064	1768.46441947566	0.3228285933897	n/a	n/a	n/a	n/a	1539.84562996595	1	5	0	0	1	0	0
280.533702781938	2.51867530249802	punish_vlpfc	283.052378084436	54	4	9	10	0	0	0	0	250	250	250	750	2000	0	BLOCKED	0.25	1	0	-1	active	At this moment	3	3	12	225	VLPFC	306.913268208504	0.450686641697878	n/a	n/a	n/a	n/a	1758.80909090909	0.291314373558801	n/a	n/a	n/a	n/a	1607.37418655098	2	6	0	0	1	0	0
284.053155604959	2.51873912616821	punish_vlpfc	286.571894731127	55	4	9	10	0	0	0	0	250	250	250	750	2000	0	BLOCKED	0.25	1	4	-1	scared	At this moment	3	3	12	225	VLPFC	322.974268123507	0.400749063670412	n/a	n/a	n/a	n/a	1743.83541666667	0.595695618754804	n/a	n/a	n/a	n/a	1650.71863117871	4	7	0	0	1	0	0
287.555952563144	2.51871232727916	punish_vlpfc	290.074664890423	56	4	9	10	0	0	0	0	250	250	250	750	2000	0	BLOCKED	0.25	-1	8	-1	determined	At this moment	4	3	12	225	VLPFC	456.556172944605	0.395755305867665	n/a	n/a	n/a	n/a	1866.27892561983	0.652574942352037	n/a	n/a	n/a	n/a	1824.06637168142	4	8	0	0	1	0	0
291.075560890257	6.02151880612968	panas_none	297.097079696387	57	5	10	10	n/a	n/a	n/a	n/a	n/a	n/a	n/a	n/a	2000	0	BLOCKED	n/a	n/a	+	0	alert	At this moment	4	3	12	225	NONE	n/a	0.431960049937578	n/a	n/a	n/a	n/a	1557.31428571429	0.18293620292083	1002.82656837721	1.1831178350234	-0.000582382528405913	57.2599790713798	1550.07619943556	7	1	0	1	0	0	1
298.097860037848	6.02165879507362	panas_none	304.119518832922	58	5	10	10	n/a	n/a	n/a	n/a	n/a	n/a	n/a	n/a	2000	0	BLOCKED	n/a	n/a	+	0	excited	At this moment	3	3	12	225	NONE	n/a	0.290886392009988	n/a	n/a	n/a	n/a	1389.15845070423	0	1479.00318979143	0.00200201644876659	-3.38872867871932e-05	28.9661554870653	1452.80399692544	4	2	0	1	0	0	1
305.120305874102	6.0215889769122	panas_none	311.141894851014	59	5	10	10	n/a	n/a	n/a	n/a	n/a	n/a	n/a	n/a	2000	0	BLOCKED	n/a	n/a	+	0	hostile	At this moment	2	3	12	225	NONE	n/a	0	1908.17153924347	-0.730582391405045	0.000166461265583748	15.0303798543387	1116.8102372035	0	1311.29496755325	-0.349378728511617	0.000150477725883585	23.4798536579264	1144.48962336664	3	3	0	1	0	0	1
312.142619126372	12.359968377307	panas_none	324.502587503679	60	5	10	10	n/a	n/a	n/a	n/a	n/a	n/a	n/a	n/a	2000	0	BLOCKED	n/a	n/a	+	0	enthusiastic	At this moment	4	3	12	225	NONE	n/a	0.533083645443196	n/a	n/a	n/a	n/a	1473.80213903743	0.521906225980015	n/a	n/a	n/a	n/a	1246.0884244373	7	4	0	1	0	0	1
325.503565663286	2.51867882865668	reward_vlpfc	328.022244491942	61	2	11	10	0	0	0	0	250	250	250	750	2000	0	BLOCKED	0.75	-1	0	1	upset	At this moment	2	3	12	225	VLPFC	1501.47182343155	0.374531835205993	n/a	n/a	n/a	n/a	1658.8502994012	0.279016141429669	n/a	n/a	n/a	n/a	1492.19402985075	2	1	1	0	0	0	0
329.006380604938	2.51872537411009	reward_vlpfc	331.525105979048	62	2	11	10	0	0	0	0	250	250	250	750	2000	0	BLOCKED	0.75	1	3	-1	jittery	At this moment	2	3	12	225	VLPFC	1488.52055298537	0	495.743145427287	1.35487549402554	-0.000336641176300132	14.084664032692	1838.39700374532	0.242121445042275	1580.72651938423	0.153550690149427	-7.99956376682313e-06	19.4010280793086	1723.14503042596	2	2	1	0	0	0	0
332.525871157974	2.51864956144988	reward_vlpfc	335.044520719424	63	2	11	10	0	0	0	0	250	250	250	750	2000	0	BLOCKED	0.75	1	9	1	guilty	At this moment	2	3	12	225	VLPFC	1308.4538519606	0	3567.92775692816	-1.70722022472452	0.000396410747145601	20.034992835354	1751.07365792759	0.275941583397387	n/a	n/a	n/a	n/a	1602.49893842887	1	3	1	0	0	0	0
336.045566934116	2.51857939065991	reward_vlpfc	338.564146324776	64	2	11	10	0	0	0	0	250	250	250	750	2000	0	BLOCKED	0.75	1	7	1	inspired	At this moment	4	3	12	225	VLPFC	573.508306600153	0.464419475655431	n/a	n/a	n/a	n/a	1701.11888111888	0	1222.6341679888	0.469765098842906	-7.50163625554301e-05	24.1278513521309	1557.83320522675	1	4	1	0	0	0	0
339.564959812246	2.51872184792904	reward_vlpfc	342.083681660175	65	2	11	10	0	0	0	0	250	250	250	750	2000	0	BLOCKED	0.75	1	8	1	enthusiastic	At this moment	3	3	12	225	VLPFC	506.534345947206	0.116104868913858	2989.08595682903	-1.24606145889549	0.00028552423085903	19.0607101223524	1646.02259887006	0.334358186010761	n/a	n/a	n/a	n/a	1580.37066974596	2	5	1	0	0	0	0
343.084396062255	2.51879695536945	reward_vlpfc	345.603193017624	66	2	11	10	0	0	0	0	250	250	250	750	2000	0	BLOCKED	0.75	-1	4	1	alert	At this moment	5	3	12	225	VLPFC	456.496933296323	0.383270911360799	n/a	n/a	n/a	n/a	1609.58502024291	0.534973097617218	n/a	n/a	n/a	n/a	1624.5305785124	3	6	1	0	0	0	0
346.587245207764	2.51878955040871	reward_vlpfc	349.106034758173	67	2	11	10	0	0	0	0	250	250	250	750	2000	0	BLOCKED	0.75	1	1	-1	strong	At this moment	4	3	12	225	VLPFC	673.58736333251	0.374531835205993	n/a	n/a	n/a	n/a	1828.68063872255	0.283627978478094	n/a	n/a	n/a	n/a	1601.50643776824	2	7	1	0	0	0	0
350.106843308985	2.51871338513496	reward_vlpfc	352.62555669412	68	2	11	10	0	0	0	0	250	250	250	750	2000	0	BLOCKED	0.75	1	9	1	inspired	At this moment	2	3	12	225	VLPFC	1488.44262462854	0.368289637952559	n/a	n/a	n/a	n/a	1610.2628458498	0.261337432744043	n/a	n/a	n/a	n/a	1570.14151925078	2	8	1	0	0	0	0
353.609732652828	6.021618244119	panas_none	359.631350896947	69	5	12	10	n/a	n/a	n/a	n/a	n/a	n/a	n/a	n/a	2000	0	BLOCKED	n/a	n/a	+	0	scared	At this moment	1	3	12	225	NONE	n/a	0.450686641697878	n/a	n/a	n/a	n/a	1296.36136363636	0	1526.59242447929	-0.476991602557156	0.000192509631840341	62.3956227585628	1288.85395849347	3	1	0	1	0	1	1
360.632076230161	6.02153749482329	panas_none	366.653613724984	70	5	12	10	n/a	n/a	n/a	n/a	n/a	n/a	n/a	n/a	2000	0	BLOCKED	n/a	n/a	+	0	upset	At this moment	3	3	12	225	NONE	n/a	0.373283395755306	n/a	n/a	n/a	n/a	1111.0796812749	0.229823212913144	1360.87796744706	-0.498946579130006	0.000192336658083904	23.7651751898147	1077.63273453094	7	2	0	1	0	1	1
367.654430385992	6.02162952786682	panas_none	373.676059913859	71	5	12	10	n/a	n/a	n/a	n/a	n/a	n/a	n/a	n/a	2000	0	BLOCKED	n/a	n/a	+	0	guilty	At this moment	1	3	12	225	NONE	n/a	0.398252184769039	n/a	n/a	n/a	n/a	1362.34854771784	0	1212.03968173535	-0.035961536987018	7.35120179891331e-05	17.498650153546	1245.01691006918	3	3	0	1	0	1	1
374.676850128599	11.3592416336388	panas_none	386.036091762237	72	5	12	10	n/a	n/a	n/a	n/a	n/a	n/a	n/a	n/a	2000	0	BLOCKED	n/a	n/a	+	0	proud	At this moment	2	3	12	225	NONE	n/a	0.387016229712859	n/a	n/a	n/a	n/a	1762.14460285132	0.461183704842429	n/a	n/a	n/a	n/a	1573.94008559201	16	4	0	1	0	1	1
387.03697929927	2.51859913721682	reward_rtpj	389.555578436486	73	1	13	10	750	250	250	250	0	0	0	0	2000	0	BLOCKED	0.75	1	7	1	determined	At this moment	4	3	12	225	RTPJ	1407.36750944704	0.382022471910112	n/a	n/a	n/a	n/a	1913.25050505051	0.711760184473482	n/a	n/a	n/a	n/a	1707.17066666667	3	1	1	0	0	0	0
390.539608059131	2.51873912617566	reward_rtpj	393.058347185306	74	1	13	10	750	250	250	250	0	0	0	0	2000	0	BLOCKED	0.75	1	4	-1	inspired	At this moment	3	3	12	225	RTPJ	540.000874496996	0.398252184769039	n/a	n/a	n/a	n/a	1878.82365145228	0.597232897770945	n/a	n/a	n/a	n/a	1935.49045801527	3	2	1	0	0	0	0
394.059221675515	2.51875675701348	reward_rtpj	396.577978432529	75	1	13	10	750	250	250	250	0	0	0	0	2000	0	BLOCKED	0.75	1	10	1	nervous	At this moment	1	3	12	225	RTPJ	1488.70003505051	0	3831.00785548211	-1.72365944213636	0.00034899641497142	17.6502649746246	1765.34581772784	0.255188316679477	n/a	n/a	n/a	n/a	1703.06295149639	1	3	1	0	0	0	0
397.578812724397	2.51867212894558	reward_rtpj	400.097484853342	76	1	13	10	750	250	250	250	0	0	0	0	2000	0	BLOCKED	0.75	-1	4	1	active	At this moment	1	3	12	225	RTPJ	474.169040367007	0.374531835205993	n/a	n/a	n/a	n/a	1738.17964071856	0.328977709454266	n/a	n/a	n/a	n/a	1603.13287514318	2	4	1	0	0	0	0
401.098226759546	2.51871867438405	reward_rtpj	403.61694543393	77	1	13	10	750	250	250	250	0	0	0	0	2000	0	BLOCKED	0.75	-1	0	1	attentive	At this moment	2	3	12	225	RTPJ	473.325580455363	0.374531835205993	n/a	n/a	n/a	n/a	1750.64071856287	0.371252882398155	n/a	n/a	n/a	n/a	1712.06968215159	2	5	1	0	0	0	0
404.61789679464	2.51867142371088	reward_rtpj	407.13656821835	78	1	13	10	750	250	250	250	0	0	0	0	2000	0	BLOCKED	0.75	1	8	1	distressed	At this moment	1	3	12	225	RTPJ	507.098533190787	0	3013.22297972066	-1.21257899743282	0.000279092872096494	18.8761312714943	1712.23595505618	0.27978478093774	n/a	n/a	n/a	n/a	1611.35752401281	1	6	1	0	0	0	0
408.120685642637	2.51872396364058	reward_rtpj	410.639409606278	79	1	13	10	750	250	250	250	0	0	0	0	2000	0	BLOCKED	0.75	-1	8	-1	enthusiastic	At this moment	5	3	12	225	RTPJ	523.285417385399	0.374531835205993	n/a	n/a	n/a	n/a	1761.12574850299	0.31206764027671	n/a	n/a	n/a	n/a	1628.64581005587	2	7	1	0	0	0	0
411.640152922951	2.51878919779512	reward_rtpj	414.158942120746	80	1	13	10	750	250	250	250	0	0	0	0	2000	0	BLOCKED	0.75	-1	1	1	hostile	At this moment	4	3	12	225	RTPJ	1491.31786378473	0.374531835205993	n/a	n/a	n/a	n/a	1652.94011976048	0.182167563412759	1228.99536061646	0.505129686079346	-0.000158475413932692	21.3280043212188	1559.42011278195	2	8	1	0	0	0	0
415.142992547795	6.02161683364955	panas_none	421.164609381445	81	5	14	10	n/a	n/a	n/a	n/a	n/a	n/a	n/a	n/a	2000	0	BLOCKED	n/a	n/a	+	0	determined	At this moment	4	3	12	225	NONE	n/a	0	152.435546370666	0.755333944499405	-0.000113208099964795	15.2525338297988	1232.87141073658	0.221368178324366	1673.07850333075	-0.931454869018798	0.000573577575207916	28.8293645092528	1363.1994076999	5	1	0	1	0	1	0
422.148872083947	6.02158368765561	panas_none	428.170455771603	82	5	14	10	n/a	n/a	n/a	n/a	n/a	n/a	n/a	n/a	2000	0	BLOCKED	n/a	n/a	+	0	active	At this moment	5	3	12	225	NONE	n/a	0.0474406991260924	1925.9510930365	-0.594068526300696	0.00018257438988724	14.1744919394194	1488.91612057667	0.229823212913144	1205.38636380493	0.358215788114398	-0.000130923569695653	31.7856214946837	1397.49600798403	4	2	0	1	0	1	0
429.171141611703	6.02156570418924	panas_none	435.192707315892	83	5	14	10	n/a	n/a	n/a	n/a	n/a	n/a	n/a	n/a	2000	0	BLOCKED	n/a	n/a	+	0	scared	At this moment	1	3	12	225	NONE	n/a	0	367.19489747202	0.887562840540838	-0.0001866189802748	14.1556490026	1397.87890137328	0.229823212913144	1511.93097315405	-0.78282244097778	0.000495551105030655	41.078334200118	1291.34331337325	4	3	0	1	0	1	0
436.176765500523	11.5594639233947	panas_none	447.736229423918	84	5	14	10	n/a	n/a	n/a	n/a	n/a	n/a	n/a	n/a	2000	0	BLOCKED	n/a	n/a	+	0	proud	At this moment	3	3	12	225	NONE	n/a	0	4525.14596032765	-2.62790418667038	0.000594637561733201	16.2674241390123	1660.53058676654	0.528823981552652	n/a	n/a	n/a	n/a	1578.68515497553	10	4	0	1	0	1	0
448.737024927907	2.51874476804585	reward_vlpfc	451.255769695953	85	2	15	10	0	0	0	0	250	250	250	750	2000	0	BLOCKED	0.75	-1	1	1	determined	At this moment	3	3	12	225	VLPFC	506.700075954199	0.461922596754057	n/a	n/a	n/a	n/a	1873.62180974478	0.441967717140661	n/a	n/a	n/a	n/a	1780.09641873278	2	1	1	0	0	0	0
452.2566180925	2.51875076252969	reward_vlpfc	454.775368855029	86	2	15	10	0	0	0	0	250	250	250	750	2000	0	BLOCKED	0.75	-1	4	1	enthusiastic	At this moment	4	3	12	225	VLPFC	423.016300067306	0.526841448189763	n/a	n/a	n/a	n/a	1899.6253298153	0.372021521906226	n/a	n/a	n/a	n/a	1887.88004895961	2	2	1	0	0	0	0
455.759471116789	2.51865767164526	reward_vlpfc	458.278128788434	87	2	15	10	0	0	0	0	250	250	250	750	2000	0	BLOCKED	0.75	-1	2	1	excited	At this moment	3	3	12	225	VLPFC	456.512448444963	0.374531835205993	n/a	n/a	n/a	n/a	1883.16167664671	0.257494235203689	n/a	n/a	n/a	n/a	1727.16770186335	2	3	1	0	0	0	0
459.262197551571	2.51899618397658	reward_vlpfc	461.781193735547	88	2	15	10	0	0	0	0	250	250	250	750	2000	0	BLOCKED	0.75	1	3	-1	guilty	At this moment	3	3	12	225	VLPFC	390.077991828322	0	1054.14091449454	0.422339054969521	-2.1261330875026e-05	14.5344092615247	1846.02871410737	0.348962336664105	n/a	n/a	n/a	n/a	1614.83943329398	1	4	1	0	0	0	0
462.781865470968	2.51865097191933	reward_vlpfc	465.300516442887	89	2	15	10	0	0	0	0	250	250	250	750	2000	0	BLOCKED	0.75	1	8	1	jittery	At this moment	1	3	12	225	VLPFC	1488.35411775112	0.374531835205993	n/a	n/a	n/a	n/a	1698.02994011976	0.237509607993851	1341.2754655597	0.427098819141595	-7.34245723908572e-05	20.5737919665635	1682.33669354839	2	5	1	0	0	0	0
466.284678296916	2.51867918128522	reward_vlpfc	468.803357478201	90	2	15	10	0	0	0	0	250	250	250	750	2000	0	BLOCKED	0.75	-1	2	1	upset	At this moment	3	3	12	225	VLPFC	507.849607437849	0.377028714107366	n/a	n/a	n/a	n/a	1809.58316633267	0.46272098385857	n/a	n/a	n/a	n/a	1787.60228898426	2	6	1	0	0	0	0
469.789415001318	2.51678174910694	reward_vlpfc	472.306196750425	91	2	15	10	0	0	0	0	250	250	250	750	2000	0	BLOCKED	0.75	1	7	1	excited	At this moment	3	3	12	225	VLPFC	788.555321022868	0.0724094881398252	1136.10604633239	0.432980185539151	-7.18219950801915e-05	16.014204526326	1721.4064602961	0.501921598770177	n/a	n/a	n/a	n/a	1686.39969135802	3	7	1	0	0	0	0
473.290323342755	2.51873383691907	reward_vlpfc	475.809057179674	92	2	15	10	0	0	0	0	250	250	250	750	2000	0	BLOCKED	0.75	1	2	-1	scared	At this moment	2	3	12	225	VLPFC	739.900519683957	0.394506866416979	n/a	n/a	n/a	n/a	1790.4824742268	0.239046887009992	1273.66109135043	0.642620628829776	-0.000221947339891313	26.262667579733	1661.1696969697	2	8	1	0	0	0	0
476.793197876684	6.02156394109875	panas_none	482.814761817783	93	5	16	10	n/a	n/a	n/a	n/a	n/a	n/a	n/a	n/a	2000	0	BLOCKED	n/a	n/a	+	0	alert	At this moment	4	3	12	225	NONE	n/a	0.3083645443196	n/a	n/a	n/a	n/a	1236.90252707581	0	1811.6664398294	-1.12333978424524	0.000500135301544628	78.0131507094506	1289.66333589547	7	1	0	1	0	1	1
483.815502313524	6.02166584741326	panas_none	489.837168160938	94	5	16	10	n/a	n/a	n/a	n/a	n/a	n/a	n/a	n/a	2000	0	BLOCKED	n/a	n/a	+	0	guilty	At this moment	1	3	12	225	NONE	n/a	0.373283395755306	n/a	n/a	n/a	n/a	1283.72111553785	0.232129131437356	1170.57013017818	0.861711782478592	-0.000553190314379124	32.7492539983528	1393.04804804805	4	2	0	1	0	1	1
490.837991169058	6.02161013393106	panas_none	496.859601302989	95	5	16	10	n/a	n/a	n/a	n/a	n/a	n/a	n/a	n/a	2000	0	BLOCKED	n/a	n/a	+	0	nervous	At this moment	1	3	12	225	NONE	n/a	0.373283395755306	n/a	n/a	n/a	n/a	1426.72310756972	0	1255.56051889405	0.147497053786556	-4.61881733776547e-05	13.6047039091459	1340.68793235972	6	3	0	1	0	1	1
497.860337214708	10.8588516392111	panas_none	508.719188853919	96	5	16	10	n/a	n/a	n/a	n/a	n/a	n/a	n/a	n/a	2000	0	BLOCKED	n/a	n/a	+	0	upset	At this moment	3	3	12	225	NONE	n/a	0	3226.76061539962	-1.54453817901119	0.000347737842218766	12.1111728191307	1535.21972534332	0.678708685626441	n/a	n/a	n/a	n/a	1442.58851674641	11	4	0	1	0	1	1
