onset	duration	trial_type	offset	trial	block	blockCntr	frequency	amplitude_1	amplitude_2	amplitude_3	amplitude_4	amplitude_5	amplitude_6	amplitude_7	amplitude_8	transition	sham	mode	rewardFraction	guess	outcome	correct	word	when	answer	runNr	scanNr	subjectNr	target	reactionTime	outcomeEyeClosed	outcomeParms_1	outcomeParms_2	outcomeParms_3	outcomeSigma	outcomePupilArea	guessEyeClosed	guessParms_1	guessParms_2	guessParms_3	guessSigma	guessPupilArea	nrBlinks	trialInBlock	isReward	isPanas	isPunish	beforePanasReward	beforePanasVLPFC
20.4460201718211	2.54769302162528	punish_rtpj	22.9937131934464	1	3	1	10	750	250	250	250	0	0	0	0	2000	0	BLOCKED	0.25	1	0	-1	scared	At this moment	2	1	6	219	RTPJ	970.850924521685	0.392009987515606	n/a	n/a	n/a	n/a	1057.31211498973	0	1090.42618440758	-0.410222995762826	0.000285305646706464	15.3583089724888	987.9523443505	1	1	0	0	1	0	0
24.004603060931	2.50845698726177	punish_rtpj	26.5130600481927	2	3	1	10	750	250	250	250	0	0	0	0	2000	0	BLOCKED	0.25	1	2	-1	active	At this moment	4	1	6	219	RTPJ	331.322359204292	0	4120.12569641555	-2.72985538914305	0.000584757977201082	10.0611436821981	997.500624219725	0	575.740659216773	0.975550740049903	-0.00034480653853165	20.5516971340692	1112.82013835511	0	2	0	0	1	0	0
27.4972409491241	2.51863245293498	punish_rtpj	30.0158734020591	3	3	1	10	750	250	250	250	0	0	0	0	2000	0	BLOCKED	0.25	1	8	1	inspired	At this moment	2	1	6	219	RTPJ	424.320833414793	0	3114.60903809865	-1.90518605597315	0.000406655061500666	13.3979746851304	928.92634207241	0	549.237760294044	0.597169321740672	-0.000179907764875661	19.2018485274812	901.89623366641	0	3	0	0	1	0	0
31.0013984785974	2.53406825748086	punish_rtpj	33.5354667360783	4	3	1	10	750	250	250	250	0	0	0	0	2000	0	BLOCKED	0.25	1	0	-1	attentive	At this moment	4	1	6	219	RTPJ	422.80352294445	0	2829.08152501003	-1.58193618801513	0.000342714172523878	22.0907238917593	1036.4506866417	0	590.512799443573	0.375635577884022	-5.11815728838637e-05	16.983451028366	865.568793235972	0	4	0	0	1	0	0
34.5416717355549	2.51326386076212	punish_rtpj	37.0549355963171	5	3	1	10	750	250	250	250	0	0	0	0	2000	0	BLOCKED	0.25	1	0	-1	alert	At this moment	1	1	6	219	RTPJ	1102.69508615136	0	3102.00674721466	-1.77425580264144	0.000385570774922868	14.0325524163138	1096.31960049938	0	579.844174402763	0.652645034186475	-0.000188451644324329	22.0540602626184	972.628747117602	0	5	0	0	1	0	0
38.0390198802054	2.51876891568303	punish_rtpj	40.5577887958884	6	3	1	10	750	250	250	250	0	0	0	0	2000	0	BLOCKED	0.25	-1	10	-1	jittery	At this moment	5	1	6	219	RTPJ	806.945071786642	0.392009987515606	n/a	n/a	n/a	n/a	1066.41067761807	0	679.645974090645	0.516721584462179	-0.000190289311203423	16.5084166224643	954.566487317448	1	6	0	0	1	0	0
41.5586706907451	2.51871496531367	punish_rtpj	44.0773856560588	7	3	1	10	750	250	250	250	0	0	0	0	2000	0	BLOCKED	0.25	1	1	-1	determined	At this moment	3	1	6	219	RTPJ	390.481600642204	0	3080.57347955905	-1.90665654986921	0.000394552941020593	10.1744628703814	837.65418227216	0	688.312828284954	0.658703406477859	-0.000278162308958941	13.6859421802379	1010.85857033052	0	7	0	0	1	0	0
45.0613549868464	2.51873682755232	punish_rtpj	47.5800918143988	8	3	1	10	750	250	250	250	0	0	0	0	2000	0	BLOCKED	0.25	1	8	1	upset	At this moment	5	1	6	219	RTPJ	724.212333202362	0	2506.912617498	-1.38734847655907	0.000285654604339169	14.5975304951306	867.837702871411	0	490.369470986645	0.594475296078235	-0.000195988362746622	24.1748506281154	827.37432744043	0	8	0	0	1	0	0
48.5921915104985	6.0270048121512	panas_none	54.6191963226497	9	5	2	10	n/a	n/a	n/a	n/a	n/a	n/a	n/a	n/a	2000	0	BLOCKED	n/a	n/a	+	0	afraid	At this moment	1	1	6	219	NONE	n/a	0	275.098660702748	0.253562164986664	-3.72143757527278e-05	8.71661754531522	641.578027465668	0	661.51503477801	-0.154673911001295	7.21185129897167e-05	17.0594684785057	593.251345119139	1	1	0	1	0	0	0
55.6032576864362	6.02170286455751	panas_none	61.6249605509937	10	5	2	10	n/a	n/a	n/a	n/a	n/a	n/a	n/a	n/a	2000	0	BLOCKED	n/a	n/a	+	0	inspired	At this moment	1	1	6	219	NONE	n/a	0	223.580719125534	0.476015975363447	-8.56464632227648e-05	10.604609923341	841.141073657928	0	790.479962324886	-0.240741808054582	0.000163435692407878	9.92044567055149	727.698693312836	1	2	0	1	0	0	0
62.6090599974394	6.02162282052637	panas_none	68.6306828179657	11	5	2	10	n/a	n/a	n/a	n/a	n/a	n/a	n/a	n/a	2000	0	BLOCKED	n/a	n/a	+	0	scared	At this moment	1	1	6	219	NONE	n/a	0	318.69737861374	0.453633979065647	-9.26468186849959e-05	8.60085996295976	857.81897627965	0	865.609508864691	0.478739001872201	-0.000350983628456887	16.7400631744692	971.058416602613	1	3	0	1	0	0	0
69.6313207018971	10.2083708429635	panas_none	79.8396915448606	12	5	2	10	n/a	n/a	n/a	n/a	n/a	n/a	n/a	n/a	2000	0	BLOCKED	n/a	n/a	+	0	alert	At this moment	4	1	6	219	NONE	n/a	0	137.8604280031	1.21017365190549	-0.000338432774392387	12.2318722406952	1168.87640449438	0.230591852421214	604.579442728589	0.363775213287936	4.76063935262111e-06	24.9885389482252	944.811188811189	4	4	0	1	0	0	0
80.8237638397813	2.51889762085676	punish_vlpfc	83.342661460638	13	4	3	10	0	0	0	0	250	250	250	750	2000	0	BLOCKED	0.25	-1	8	-1	hostile	At this moment	4	1	6	219	VLPFC	740.181294441223	0.374531835205993	n/a	n/a	n/a	n/a	969.071856287425	0	500.319983659215	0.492004418902897	-5.29995346833457e-05	17.3186253206783	877.781706379708	2	1	0	0	1	0	0
84.3266657004952	2.5187241333723	punish_vlpfc	86.8453898338675	14	4	3	10	0	0	0	0	250	250	250	750	2000	0	BLOCKED	0.25	1	1	-1	irritable	At this moment	2	1	6	219	VLPFC	523.204131007195	0	2703.96848848593	-1.45720912416676	0.000301824942112293	15.9494931031725	990.198501872659	0	553.189856136801	0.61749953242433	-0.000222897978899857	28.8517270970309	885.770945426595	0	2	0	0	1	0	0
87.8463277947903	2.5185725080967	punish_vlpfc	90.364900302887	15	4	3	10	0	0	0	0	250	250	250	750	2000	0	BLOCKED	0.25	1	4	-1	ashamed	At this moment	1	1	6	219	VLPFC	422.804228156805	0	443.066215309987	0.198745043958884	-1.24920148183264e-05	7.44551810638435	804.7265917603	0	530.46684802804	0.133942894345541	-5.00951323346648e-06	13.3260929356213	639.877017678709	0	3	0	0	1	0	0
91.3687759151459	2.5158414902389	punish_vlpfc	93.8846174053848	16	4	3	10	0	0	0	0	250	250	250	750	2000	0	BLOCKED	0.25	1	3	-1	scared	At this moment	4	1	6	219	VLPFC	804.534935355186	0	415.028474268035	0.224613141892284	-1.98994351770056e-05	8.2207242357079	797.883895131086	0.265949269792467	n/a	n/a	n/a	n/a	787.867015706806	1	4	0	0	1	0	0
94.8884760920405	2.53215918961168	punish_vlpfc	97.4206352816522	17	4	3	10	0	0	0	0	250	250	250	750	2000	0	BLOCKED	0.25	1	9	1	guilty	At this moment	2	1	6	219	VLPFC	603.09160387516	0	2645.18323532216	-1.48623271175109	0.00028415527778573	10.5138472235941	792.274656679151	0	504.920357167814	0.831135943008526	-0.000365058049817576	33.3889952633437	898.453497309762	1	5	0	0	1	0	0
98.4214801517427	2.51882603961229	punish_vlpfc	100.940306191355	18	4	3	10	0	0	0	0	250	250	250	750	2000	0	BLOCKED	0.25	1	0	-1	jittery	At this moment	1	1	6	219	VLPFC	340.775665491819	0	982.083973930653	-0.159555982400283	5.0870938224604e-05	8.97819528485195	874.094881398252	0	449.842195299099	0.420696443978585	-0.000121852963083005	18.9894389302895	702.475787855496	0	6	0	0	1	0	0
101.94100895685	2.51864479452372	punish_vlpfc	104.459653751373	19	4	3	10	0	0	0	0	250	250	250	750	2000	0	BLOCKED	0.25	-1	7	-1	upset	At this moment	4	1	6	219	VLPFC	324.176577806473	0	2176.37317737784	-1.24051452546449	0.000272451368276232	10.8933746199028	787.009987515606	0	580.042355592239	0.494124627089298	-0.00023856862207986	17.2032234677404	794.19139123751	0	7	0	0	1	0	0
105.443875203252	2.51872307550907	punish_vlpfc	107.962598278761	20	4	3	10	0	0	0	0	250	250	250	750	2000	0	BLOCKED	0.25	-1	4	1	scared	At this moment	5	1	6	219	VLPFC	580.524122714996	0.374531835205993	n/a	n/a	n/a	n/a	710.473053892216	0	559.197250695501	0.417910282769598	-0.000187463447356052	13.2039088882794	752.498847040738	1	8	0	0	1	0	0
108.963420933962	6.03818911480903	panas_none	115.001610048771	21	5	4	10	n/a	n/a	n/a	n/a	n/a	n/a	n/a	n/a	2000	0	BLOCKED	n/a	n/a	+	0	ashamed	At this moment	2	1	6	219	NONE	n/a	0	150.996608860217	0.398855352941409	-6.86055209800519e-05	8.98937430233951	682.259675405743	0	540.860195823472	0.177812136849449	-4.43110145134705e-05	23.1674711231222	654.809377401999	1	1	0	1	0	0	1
115.985694332629	6.02160695278646	panas_none	122.007301285416	22	5	4	10	n/a	n/a	n/a	n/a	n/a	n/a	n/a	n/a	2000	0	BLOCKED	n/a	n/a	+	0	afraid	At this moment	1	1	6	219	NONE	n/a	0	915.233576961951	-0.0916455453041376	1.10961143627244e-05	7.24698938034549	772.279650436954	0	825.202483861843	-0.100390775012463	7.2466447596093e-05	10.453337923314	799.777863182168	1	2	0	1	0	0	1
122.991453976989	6.02153219798208	panas_none	129.012986174971	23	5	4	10	n/a	n/a	n/a	n/a	n/a	n/a	n/a	n/a	2000	0	BLOCKED	n/a	n/a	+	0	proud	At this moment	1	1	6	219	NONE	n/a	0	737.007841921145	-0.255669014275472	9.8408624952857e-05	12.1909309488851	639.650436953808	0.229823212913144	836.698458496003	-0.319746638037592	0.000112406989099692	14.315396967085	673.269461077844	2	3	0	1	0	0	1
130.013859959602	11.8596376720667	panas_none	141.873497631669	24	5	4	10	n/a	n/a	n/a	n/a	n/a	n/a	n/a	n/a	2000	0	BLOCKED	n/a	n/a	+	0	active	At this moment	1	1	6	219	NONE	n/a	0	3789.91135757468	-2.31674253214591	0.000481877577871715	11.8572262194801	1075.51685393258	0.772482705611068	n/a	n/a	n/a	n/a	992.070945945946	6	4	0	1	0	0	1
142.874279030681	2.51869380831718	reward_vlpfc	145.392972838998	25	2	5	10	0	0	0	0	250	250	250	750	2000	0	BLOCKED	0.75	-1	2	1	ashamed	At this moment	5	1	6	219	VLPFC	556.633975565434	0.374531835205993	n/a	n/a	n/a	n/a	1032.81437125748	0	586.099137522357	0.580690113750477	-0.000124393802025016	18.0262820956261	971.508839354343	1	1	1	0	0	0	0
146.393721092045	2.51885037016871	reward_vlpfc	148.912571462214	26	2	5	10	0	0	0	0	250	250	250	750	2000	0	BLOCKED	0.75	-1	10	-1	determined	At this moment	5	1	6	219	VLPFC	423.109241783619	0	2055.32156801634	-0.813529268485521	0.000164438665367612	15.2215115226907	1080.99375780275	0.232897770945427	727.276510343904	0.668073418586391	-0.000216147167652039	47.4298882535736	1102.86673346693	1	2	1	0	0	0	0
149.896570060223	2.51880382478237	reward_vlpfc	152.415373885006	27	2	5	10	0	0	0	0	250	250	250	750	2000	0	BLOCKED	0.75	1	2	-1	nervous	At this moment	1	1	6	219	VLPFC	990.449371427298	0.374531835205993	n/a	n/a	n/a	n/a	1260.1377245509	0	725.953475731635	0.562881644593695	-0.000127085114481209	20.8302111572396	1095.67332820907	1	3	1	0	0	0	0
153.420831689268	2.51403997051716	reward_vlpfc	155.934871659786	28	2	5	10	0	0	0	0	250	250	250	750	2000	0	BLOCKED	0.75	-1	2	1	distressed	At this moment	5	1	6	219	VLPFC	618.392708748579	0	2784.99003807836	-1.36860028062453	0.000291036307096315	15.7999658063466	1209.30961298377	0.242890084550346	713.455172359015	0.82585553818446	-0.000305600135853659	23.7521425005139	1178.17868020305	1	4	1	0	0	0	0
156.935742270917	2.51867547222972	reward_vlpfc	159.454417743146	29	2	5	10	0	0	0	0	250	250	250	750	2000	0	BLOCKED	0.75	-1	1	1	irritable	At this moment	3	1	6	219	VLPFC	691.320582002401	0.374531835205993	n/a	n/a	n/a	n/a	1249.25748502994	0	661.392325789518	0.629491523571793	-0.000164352992663313	20.6521699087248	1056.44427363566	1	5	1	0	0	0	0
160.460066313148	2.51386754089594	reward_vlpfc	162.973933854043	30	2	5	10	0	0	0	0	250	250	250	750	2000	0	BLOCKED	0.75	1	8	1	enthusiastic	At this moment	4	1	6	219	VLPFC	401.243820846081	0.374531835205993	n/a	n/a	n/a	n/a	1248.7744510978	0	733.598303321902	0.497489041460153	-6.80130504165913e-05	27.6844672509958	1097.98385857033	1	6	1	0	0	0	0
163.974852773666	2.51864796805381	reward_vlpfc	166.49350074172	31	2	5	10	0	0	0	0	250	250	250	750	2000	0	BLOCKED	0.75	-1	3	1	strong	At this moment	2	1	6	219	VLPFC	589.885043352842	0.374531835205993	n/a	n/a	n/a	n/a	1304.9001996008	0	874.018719559662	0.486828238029125	-9.08635256340271e-05	29.0295492721089	1208.93543428132	1	7	1	0	0	0	0
167.49425922066	2.53550622916222	reward_vlpfc	170.029765449822	32	2	5	10	0	0	0	0	250	250	250	750	2000	0	BLOCKED	0.75	-1	1	1	interested	At this moment	4	1	6	219	VLPFC	623.622017294168	0.374531835205993	n/a	n/a	n/a	n/a	1184.25349301397	0	799.367854252102	0.76658611868559	-0.000307867497294384	33.8591917573743	1184.86010760953	1	8	1	0	0	0	0
171.030610319912	6.0214979941249	panas_none	177.052108314037	33	5	6	10	n/a	n/a	n/a	n/a	n/a	n/a	n/a	n/a	2000	0	BLOCKED	n/a	n/a	+	0	jittery	At this moment	1	1	6	219	NONE	n/a	0	2052.3240817931	-1.34386557713491	0.000357492640757997	8.00863277776681	825.665418227216	0	1187.96844577791	-0.705527997263567	0.000331492104835921	27.3099618474055	875.420445810915	1	1	0	1	0	1	1
178.05289958635	6.02180512347817	panas_none	184.074704709828	34	5	6	10	n/a	n/a	n/a	n/a	n/a	n/a	n/a	n/a	2000	0	BLOCKED	n/a	n/a	+	0	irritable	At this moment	1	1	6	219	NONE	n/a	0	1267.33147614178	-0.567692642746351	0.000165062779677833	9.49136660392022	811.635455680399	0.285933897002306	n/a	n/a	n/a	n/a	755.819160387513	4	2	0	1	0	1	1
185.075318615824	6.02147824761272	panas_none	191.096796863437	35	5	6	10	n/a	n/a	n/a	n/a	n/a	n/a	n/a	n/a	2000	0	BLOCKED	n/a	n/a	+	0	afraid	At this moment	1	1	6	219	NONE	n/a	0	611.220388873875	0.0081172043118603	6.46741323074071e-05	9.2974978289322	917.186017478152	0.229823212913144	765.773767224087	0.0557780984706268	-1.07341873397279e-05	20.7454046415799	803.156686626746	2	3	0	1	0	1	1
192.097583904326	13.4943576007783	panas_none	205.591941505104	36	5	6	10	n/a	n/a	n/a	n/a	n/a	n/a	n/a	n/a	2000	0	BLOCKED	n/a	n/a	+	0	ashamed	At this moment	3	1	6	219	NONE	n/a	0	-1867.93194969267	2.98457795412383	-0.00073092230850264	16.5694530882726	1137.55555555556	0.508839354342813	n/a	n/a	n/a	n/a	1041.32394366197	5	4	0	1	0	1	1
206.592656964779	2.51877491018175	punish_vlpfc	209.111431874961	37	4	7	10	0	0	0	0	250	250	250	750	2000	0	BLOCKED	0.25	1	10	1	attentive	At this moment	3	1	6	219	VLPFC	790.281102657318	0.374531835205993	n/a	n/a	n/a	n/a	927.97005988024	0	650.128393294844	0.0198319366421327	0.000157825943753959	12.9204237424702	802.972328977709	1	1	0	0	1	0	0
210.112305307001	2.51868781381847	punish_vlpfc	212.630993120819	38	4	7	10	0	0	0	0	250	250	250	750	2000	0	BLOCKED	0.25	-1	9	-1	strong	At this moment	5	1	6	219	VLPFC	606.774334728718	0.374531835205993	n/a	n/a	n/a	n/a	1314.40518962076	0	684.674890038171	0.746022435576458	-0.000224005621354672	37.0973743800528	1125.80553420446	1	2	0	0	1	0	0
213.615109845459	2.51870791298151	punish_vlpfc	216.133817758441	39	4	7	10	0	0	0	0	250	250	250	750	2000	0	BLOCKED	0.25	-1	7	-1	guilty	At this moment	5	1	6	219	VLPFC	272.751987963915	0.378277153558052	n/a	n/a	n/a	n/a	1323.9156626506	0	566.756591191021	1.04131851158104	-0.000337350303951081	18.9987099456772	1178.85549577248	1	3	0	0	1	0	0
217.117952466547	2.51864902594687	punish_vlpfc	219.636601492494	40	4	7	10	0	0	0	0	250	250	250	750	2000	0	BLOCKED	0.25	-1	3	1	enthusiastic	At this moment	4	1	6	219	VLPFC	289.914204806089	0.430711610486891	n/a	n/a	n/a	n/a	1119.18201754386	0	816.176991070904	0.650930463088027	-0.000284390320507963	28.9334801898804	1124.40737893928	3	4	0	0	1	0	0
220.622497169405	2.51732212853432	punish_vlpfc	223.13981929794	41	4	7	10	0	0	0	0	250	250	250	750	2000	0	BLOCKED	0.25	-1	7	-1	distressed	At this moment	3	1	6	219	VLPFC	689.078996390104	0.449438202247191	n/a	n/a	n/a	n/a	1125.96825396825	0	722.702975029152	0.69763860793574	-0.000298410996359636	32.6038141940133	1059.1813989239	2	5	0	0	1	0	0
224.14379752174	2.51521206909419	punish_vlpfc	226.659009590834	42	4	7	10	0	0	0	0	250	250	250	750	2000	0	BLOCKED	0.25	1	1	-1	inspired	At this moment	4	1	6	219	VLPFC	423.058112323284	0.506866416978777	n/a	n/a	n/a	n/a	1260.93417721519	0.26902382782475	n/a	n/a	n/a	n/a	1297.62039957939	2	6	0	0	1	0	0
227.664922976136	2.51355618014932	punish_vlpfc	230.178479156286	43	4	7	10	0	0	0	0	250	250	250	750	2000	0	BLOCKED	0.25	1	2	-1	scared	At this moment	4	1	6	219	VLPFC	267.720144897699	0.379525593008739	n/a	n/a	n/a	n/a	1253.56539235412	0.282859338970023	n/a	n/a	n/a	n/a	1084.16398713826	2	7	0	0	1	0	0
231.179703442156	2.51837504261732	punish_vlpfc	233.698078484774	44	4	7	10	0	0	0	0	250	250	250	750	2000	0	BLOCKED	0.25	1	2	-1	excited	At this moment	2	1	6	219	VLPFC	790.437311947346	0	2222.74055497296	-0.788511878408306	0.000147747275832212	14.8266382944088	1226.80898876404	0	866.053087360463	0.68979161893126	-0.000240659718673386	21.9371653549023	1244.27747886241	0	8	0	0	1	0	0
234.698917712986	6.02160836324097	panas_none	240.720526076227	45	5	8	10	n/a	n/a	n/a	n/a	n/a	n/a	n/a	n/a	2000	0	BLOCKED	n/a	n/a	+	0	distressed	At this moment	1	1	6	219	NONE	n/a	0	-253.369440047463	2.01932425003645	-0.000481688280568935	21.6450324099084	1837.19350811486	0.229823212913144	1199.13986801044	-1.39393840896849	0.00141524767463771	27.5218475838949	1312.73952095808	3	1	0	1	0	0	1
241.721422780991	6.02155159187316	panas_none	247.742974372864	46	5	8	10	n/a	n/a	n/a	n/a	n/a	n/a	n/a	n/a	2000	0	BLOCKED	n/a	n/a	+	0	hostile	At this moment	1	1	6	219	NONE	n/a	0	832.891552681255	0.593679285159882	-0.000194461144508522	17.6720234722065	1211.82397003745	0.229823212913144	1256.08627121417	0.325839739460687	-8.77161660910576e-05	27.3997002379095	1474.66766467066	4	2	0	1	0	0	1
248.743664444149	6.02154595002531	panas_none	254.765210394174	47	5	8	10	n/a	n/a	n/a	n/a	n/a	n/a	n/a	n/a	2000	0	BLOCKED	n/a	n/a	+	0	guilty	At this moment	1	1	6	219	NONE	n/a	0.0611735330836454	2040.74307416742	-0.972532721338009	0.000234651630825242	10.0372646674097	1043.91888297872	0	1220.38741679806	-0.125243427669004	5.75573259856263e-05	26.9911963111512	1163.5995388163	2	3	0	1	0	0	1
255.766216762781	9.14064688980579	panas_none	264.906863652587	48	5	8	10	n/a	n/a	n/a	n/a	n/a	n/a	n/a	n/a	2000	0	BLOCKED	n/a	n/a	+	0	scared	At this moment	5	1	6	219	NONE	n/a	0	43.3659766265952	1.4887975982123	-0.000295434406791597	15.6858728279821	1851.14232209738	0.456571867794005	n/a	n/a	n/a	n/a	1552.8981612447	7	4	0	1	0	0	1
265.907724390417	2.51864937856794	reward_vlpfc	268.426373768985	49	2	9	10	0	0	0	0	250	250	250	750	2000	0	BLOCKED	0.75	-1	6	-1	distressed	At this moment	3	1	6	219	VLPFC	956.536794364452	0	4523.60891227205	-2.61272532966711	0.000546305073177692	17.1387357921049	1474.86641697878	0.363566487317448	n/a	n/a	n/a	n/a	1414.42512077295	2	1	1	0	0	0	0
269.410500719547	2.51864021047953	reward_vlpfc	271.929140930027	50	2	9	10	0	0	0	0	250	250	250	750	2000	0	BLOCKED	0.75	-1	10	-1	jittery	At this moment	4	1	6	219	VLPFC	1190.37257146835	0	5865.22867793189	-3.78567821909327	0.000787915863396207	21.5260665738359	1428.33208489388	0	670.427702879479	1.24721493118171	-0.000443819829176802	15.8847185751293	1358.15680245965	0	2	1	0	0	0	0
272.92989729327	2.51870685514808	reward_vlpfc	275.448604148418	51	2	9	10	0	0	0	0	250	250	250	750	2000	0	BLOCKED	0.75	1	7	1	determined	At this moment	1	1	6	219	VLPFC	790.317774862051	0	5812.29401626623	-3.68355214160628	0.000753191031767331	28.6348948305639	1437.6429463171	0	837.771241897805	0.541759650371513	-3.64315368360388e-06	25.9775473306458	1295.16679477325	0	3	1	0	0	0	0
276.449441260934	2.51877385231853	reward_vlpfc	278.968215113252	52	2	9	10	0	0	0	0	250	250	250	750	2000	0	BLOCKED	0.75	-1	3	1	ashamed	At this moment	4	1	6	219	VLPFC	874.102722197771	0	7033.0274164061	-5.08860909081823	0.00113935207511605	13.7652937913042	1425.44319600499	0	668.083114865884	0.826090069571657	-0.00015456902947383	27.6466790765393	1237.54112221368	0	4	1	0	0	0	0
279.96903353706	2.51873259612921	reward_vlpfc	282.487766133189	53	2	9	10	0	0	0	0	250	250	250	750	2000	0	BLOCKED	0.75	-1	0	1	inspired	At this moment	1	1	6	219	VLPFC	322.766462892294	0	2201.521621346	-1.18864898190178	0.000342972413660821	16.4382863283312	1236.60549313358	0.415065334358186	n/a	n/a	n/a	n/a	1177.45072273325	2	5	1	0	0	0	0
283.48879295361	2.51849140620232	reward_vlpfc	286.007284359813	54	2	9	10	0	0	0	0	250	250	250	750	2000	0	BLOCKED	0.75	1	10	1	enthusiastic	At this moment	3	1	6	219	VLPFC	289.43288269639	0.393258426966292	n/a	n/a	n/a	n/a	1130.37860082305	0	834.741316608536	0.465175074867014	-0.000136926079700774	14.6304780084159	1112.28285933897	1	6	1	0	0	0	0
287.008158144474	2.51863738957047	reward_vlpfc	289.526795534044	55	2	9	10	0	0	0	0	250	250	250	750	2000	0	BLOCKED	0.75	1	9	1	proud	At this moment	2	1	6	219	VLPFC	507.412888616323	0	5921.25253260217	-4.00076686734645	0.000840281684480265	20.5641907403669	1266.58302122347	0	776.761157647978	0.747269940272433	-0.000230481810396857	28.4792660366575	1213.22367409685	0	7	1	0	0	0	0
290.515648608804	2.51409850496054	reward_vlpfc	293.029747113764	56	2	9	10	0	0	0	0	250	250	250	750	2000	0	BLOCKED	0.75	1	6	1	irritable	At this moment	4	1	6	219	VLPFC	272.193442821503	0	3169.24119361772	-1.53648746466205	0.000329854610254318	14.3763598198135	1414.17228464419	0.230591852421214	558.1204877573	0.989513164651338	-0.000245776627511823	28.7136926521232	1207.22577422577	1	8	1	0	0	0	0
294.030528865427	6.02153360843658	panas_none	300.052062473863	57	5	10	10	n/a	n/a	n/a	n/a	n/a	n/a	n/a	n/a	2000	0	BLOCKED	n/a	n/a	+	0	scared	At this moment	1	1	6	219	NONE	n/a	0	1404.58179404369	-0.799635988557933	0.000228727871256542	7.93668962574749	746.380774032459	0	1019.05959372107	-0.148828711019833	-4.00249404713955e-05	18.1933427679714	866.691775557264	0	1	0	1	0	1	1
301.052991266757	6.02138268843294	panas_none	307.07437395519	58	5	10	10	n/a	n/a	n/a	n/a	n/a	n/a	n/a	n/a	2000	0	BLOCKED	n/a	n/a	+	0	jittery	At this moment	2	1	6	219	NONE	n/a	0.394506866416979	n/a	n/a	n/a	n/a	808.738144329897	0	707.995938413096	0.0268493559214743	2.68693801135957e-05	7.79941458481724	754.054573405073	1	2	0	1	0	1	1
308.059246690422	6.02083824792504	panas_none	314.080084938347	59	5	10	10	n/a	n/a	n/a	n/a	n/a	n/a	n/a	n/a	2000	0	BLOCKED	n/a	n/a	+	0	determined	At this moment	1	1	6	219	NONE	n/a	0	1260.40283798388	-0.324931722835552	5.45295969815822e-05	9.56921356527323	821.292134831461	0	932.17062319462	0.137980244229844	-6.69087386293959e-05	10.1918962424445	991.670253651038	2	3	0	1	0	1	1
315.064292638183	6.72200318837167	panas_none	321.786295826554	60	5	10	10	n/a	n/a	n/a	n/a	n/a	n/a	n/a	n/a	2000	0	BLOCKED	n/a	n/a	+	0	irritable	At this moment	5	1	6	219	NONE	n/a	0	988.606433920826	-0.145695462251782	5.92824817949392e-05	9.03282962323258	947.094881398252	0.254419677171407	n/a	n/a	n/a	n/a	906.068041237113	2	4	0	1	0	1	1
322.787211219996	2.51867335653304	reward_rtpj	325.305884576529	61	1	11	10	750	250	250	250	0	0	0	0	2000	0	BLOCKED	0.75	1	1	-1	nervous	At this moment	2	1	6	219	RTPJ	1207.20967555046	0	2921.9770361695	-1.62981696133313	0.000418852258031329	21.4488588121271	1369.25218476904	0	860.392060914944	0.12057870635759	8.40982551161047e-05	18.7063847672898	1035.285933897	0	1	1	0	0	0	0
326.306787628353	2.51863386344911	reward_rtpj	328.825421491802	62	1	11	10	750	250	250	250	0	0	0	0	2000	0	BLOCKED	0.75	1	8	1	interested	At this moment	2	1	6	219	RTPJ	1290.62578570843	0.374531835205993	n/a	n/a	n/a	n/a	1125.0119760479	0.230591852421214	789.354971611285	0.57923296158022	-0.000193470880466081	31.7011436136466	1083.1968031968	2	2	1	0	0	0	0
329.826134130538	2.51883379718657	reward_rtpj	332.344967927724	63	1	11	10	750	250	250	250	0	0	0	0	2000	0	BLOCKED	0.75	-1	10	-1	afraid	At this moment	1	1	6	219	RTPJ	1157.77525538206	0.392009987515606	n/a	n/a	n/a	n/a	1115.21971252567	0	625.846735509639	1.19428984276708	-0.000540691746529144	18.5199354331787	1182.04842428901	1	3	1	0	0	0	0
333.329205247372	2.53526186564562	reward_rtpj	335.864467113018	64	1	11	10	750	250	250	250	0	0	0	0	2000	0	BLOCKED	0.75	-1	2	1	active	At this moment	5	1	6	219	RTPJ	939.089663058519	0.394506866416979	n/a	n/a	n/a	n/a	1242.9175257732	0	694.138985089004	0.74250932994369	-0.000213020437305899	26.4823983855097	1144.00691775557	1	4	1	0	0	0	0
336.865304930747	2.51876151075959	reward_rtpj	339.384066441506	65	1	11	10	750	250	250	250	0	0	0	0	2000	0	BLOCKED	0.75	-1	3	1	strong	At this moment	4	1	6	219	RTPJ	406.113460153341	0.389513108614232	n/a	n/a	n/a	n/a	1001.30879345603	0	781.065082858765	0.551725729331556	-0.000260694975469383	19.3599855202758	1025.73481936972	1	5	1	0	0	0	0
340.38496984598	2.51849563759566	reward_rtpj	342.903465483576	66	1	11	10	750	250	250	250	0	0	0	0	2000	0	BLOCKED	0.75	1	6	1	inspired	At this moment	1	1	6	219	RTPJ	307.358867734671	0.419475655430712	n/a	n/a	n/a	n/a	1185.81720430108	0.257494235203689	n/a	n/a	n/a	n/a	1193.8281573499	2	6	1	0	0	0	0
343.887584323943	2.51879747766259	reward_rtpj	346.406381801605	67	1	11	10	750	250	250	250	0	0	0	0	2000	0	BLOCKED	0.75	1	10	1	enthusiastic	At this moment	2	1	6	219	RTPJ	373.299284636974	0.400749063670412	n/a	n/a	n/a	n/a	1013.275	0	754.930391717678	0.478062355366969	-0.000208140676839517	24.1611157477917	981.628747117602	1	7	1	0	0	0	0
347.390500641972	2.51872554379702	reward_rtpj	349.909226185769	68	1	11	10	750	250	250	250	0	0	0	0	2000	0	BLOCKED	0.75	1	8	1	jittery	At this moment	3	1	6	219	RTPJ	339.778817504644	0	4580.51358876025	-3.1027679904176	0.000677831381588274	16.8882483525951	1088.31585518102	0.393543428132206	n/a	n/a	n/a	n/a	1095.71989860583	2	8	1	0	0	0	0
350.910126416683	6.03836965465547	panas_none	356.948496071339	69	5	12	10	n/a	n/a	n/a	n/a	n/a	n/a	n/a	n/a	2000	0	BLOCKED	n/a	n/a	+	0	determined	At this moment	1	1	6	219	NONE	n/a	0	560.369381451878	-0.0994301121509705	7.26432261518635e-05	9.2969487094992	675.650436953808	0	832.977033131177	0.012733483403006	-0.000104301700670357	12.6362136052717	761.857801691007	2	1	0	1	0	1	0
357.953656619579	6.01697638767956	panas_none	363.970633007258	70	5	12	10	n/a	n/a	n/a	n/a	n/a	n/a	n/a	n/a	2000	0	BLOCKED	n/a	n/a	+	0	active	At this moment	2	1	6	219	NONE	n/a	0.373283395755306	n/a	n/a	n/a	n/a	725.04780876494	0	892.207319688304	-0.266765505243608	8.34119516499315e-05	9.04466166372919	737.490392006149	4	2	0	1	0	1	0
364.971395717621	6.02163198855521	panas_none	370.993027706176	71	5	12	10	n/a	n/a	n/a	n/a	n/a	n/a	n/a	n/a	2000	0	BLOCKED	n/a	n/a	+	0	interested	At this moment	4	1	6	219	NONE	n/a	0	949.420910453738	-0.336490289832534	0.000107955793198474	10.043692809119	724.483146067416	0	915.132383307516	-0.19938884878428	4.64559404592788e-05	8.85146959702396	786.471944657955	2	3	0	1	0	1	0
371.993836256713	9.10737572282557	panas_none	381.101211979538	72	5	12	10	n/a	n/a	n/a	n/a	n/a	n/a	n/a	n/a	2000	0	BLOCKED	n/a	n/a	+	0	distressed	At this moment	2	1	6	219	NONE	n/a	0.0686641697877653	-1741.05863600834	3.11233005369574	-0.00074938117279465	26.5454792486297	1429.95576407507	0.651806302843966	n/a	n/a	n/a	n/a	1240.646799117	6	4	0	1	0	1	0
382.085351976901	2.51875199010971	punish_rtpj	384.604103967011	73	3	13	10	750	250	250	250	0	0	0	0	2000	0	BLOCKED	0.25	-1	9	-1	determined	At this moment	5	1	6	219	RTPJ	773.295899510384	0	2159.91344198168	-0.749241791554589	0.000154673240428021	15.3676120118608	1277.06367041198	0	510.743301482083	0.866726399228182	-0.000216669240134172	23.0821028698773	1063.33743274404	0	1	0	0	1	0	0
385.590877307326	2.51604671329255	punish_rtpj	388.106924020618	74	3	13	10	750	250	250	250	0	0	0	0	2000	0	BLOCKED	0.25	1	6	1	irritable	At this moment	5	1	6	219	RTPJ	287.189534038305	0	6356.12784170841	-4.61777702174832	0.0010486484452528	22.7486685013067	1335.94382022472	0	668.329078232057	0.78977165129995	-0.000158839441882112	38.2836096196998	1203.53727901614	0	2	0	0	1	0	0
389.107656053275	2.51903267312048	punish_rtpj	391.626688726395	75	3	13	10	750	250	250	250	0	0	0	0	2000	0	BLOCKED	0.25	-1	10	-1	active	At this moment	2	1	6	219	RTPJ	239.960732579231	0.408239700374532	n/a	n/a	n/a	n/a	1175.22362869198	0.24750192159877	812.527375179982	0.502792005000454	-0.000163648463312719	31.4815352025368	1092.48621041879	2	3	0	0	1	0	0
392.610616095781	2.51872589641812	punish_rtpj	395.129341992199	76	3	13	10	750	250	250	250	0	0	0	0	2000	0	BLOCKED	0.25	-1	9	-1	afraid	At this moment	3	1	6	219	RTPJ	90.5065306127071	0.389513108614232	n/a	n/a	n/a	n/a	1196.36809815951	0	790.863640172751	0.504566509867724	-0.000124276080820318	17.9160944463124	1112.59262106072	1	4	0	0	1	0	0
396.130136438072	2.51872025457027	punish_rtpj	398.648856692642	77	3	13	10	750	250	250	250	0	0	0	0	2000	0	BLOCKED	0.25	-1	10	-1	distressed	At this moment	2	1	6	219	RTPJ	456.356783390045	0.362047440699126	n/a	n/a	n/a	n/a	1324.87279843444	0.208301306687164	276.655771795559	1.64923022215832	-0.000677785784485365	17.8360557091771	1174.34563106796	2	5	0	0	1	0	0
399.632862342954	2.51878196251391	punish_rtpj	402.151644305468	78	3	13	10	750	250	250	250	0	0	0	0	2000	0	BLOCKED	0.25	-1	10	-1	determined	At this moment	3	1	6	219	RTPJ	890.135859757662	0	2063.74326510652	-0.552300597457344	0.000106134932545104	10.8431745876921	1377.7191011236	0	798.604824184082	1.09691940977899	-0.000422624654604107	16.267259839211	1375.95157571099	0	6	0	0	1	0	0
403.152538541913	2.51863562649487	punish_rtpj	405.671174168408	79	3	13	10	750	250	250	250	0	0	0	0	2000	0	BLOCKED	0.25	1	1	-1	jittery	At this moment	3	1	6	219	RTPJ	523.036285340786	0	1362.28958811119	0.154773658014919	-2.4172202375067e-05	21.4838670390682	1578.95755305868	0	749.487413804809	0.837293850124583	-0.000221436940976626	24.3960117289593	1271.40507302075	0	7	0	0	1	0	0
406.655422066569	2.51864021050932	punish_rtpj	409.174062277079	80	3	13	10	750	250	250	250	0	0	0	0	2000	0	BLOCKED	0.25	-1	2	1	inspired	At this moment	4	1	6	219	RTPJ	689.882610291243	0	2266.14915192655	-0.813636913210193	0.000172243121793586	18.7172165952542	1326.88264669164	0.230591852421214	817.67815836463	0.200327026662738	0.000106605844764722	28.506564931152	1100.27672327672	2	8	0	0	1	0	0
410.174803477794	6.02160272136331	panas_none	416.196406199157	81	5	14	10	n/a	n/a	n/a	n/a	n/a	n/a	n/a	n/a	2000	0	BLOCKED	n/a	n/a	+	0	upset	At this moment	1	1	6	219	NONE	n/a	0	4332.03937428707	-2.92419767657098	0.000692801416859484	10.2618303317105	1283.75156054931	0.156033820138355	-16.7823002733572	2.48326981615188	-0.000918307537815099	94.0070657373814	1425.04553734062	3	1	0	1	0	0	0
417.197233790994	6.02155934950713	panas_none	423.218793140501	82	5	14	10	n/a	n/a	n/a	n/a	n/a	n/a	n/a	n/a	2000	0	BLOCKED	n/a	n/a	+	0	excited	At this moment	2	1	6	219	NONE	n/a	0	2603.27302262479	-1.43638300114326	0.000364011144054723	27.4239189702492	1210.72784019975	0.31206764027671	n/a	n/a	n/a	n/a	1192.61229050279	3	2	0	1	0	0	0
424.219651057392	6.02151174619792	panas_none	430.24116280359	83	5	14	10	n/a	n/a	n/a	n/a	n/a	n/a	n/a	n/a	2000	0	BLOCKED	n/a	n/a	+	0	jittery	At this moment	2	1	6	219	NONE	n/a	0.389513108614232	n/a	n/a	n/a	n/a	1099.57259713701	0.232897770945427	1362.69203497021	0.0593108449314626	-8.18256739740446e-05	23.0773131094016	1303.23046092184	4	3	0	1	0	0	0
431.241986869246	7.2727139053643	panas_none	438.51470077461	84	5	14	10	n/a	n/a	n/a	n/a	n/a	n/a	n/a	n/a	2000	0	BLOCKED	n/a	n/a	+	0	determined	At this moment	3	1	6	219	NONE	n/a	0	437.503981331917	0.967085641773299	-0.000173846825997229	16.9288756785132	1692.71660424469	0.235972328977709	1186.48203061105	0.115181772647869	0.000100148863812723	26.9620528038014	1365.55734406439	2	4	0	1	0	0	0
439.515395077258	2.51872977522015	reward_rtpj	442.034124852478	85	1	15	10	750	250	250	250	0	0	0	0	2000	0	BLOCKED	0.75	-1	3	1	distressed	At this moment	5	1	6	219	RTPJ	1090.58022758365	0.374531835205993	n/a	n/a	n/a	n/a	1277.58083832335	0.234435049961568	683.499522987933	0.795110196166496	-0.000246301989798943	47.754866216079	1157.32831325301	2	1	1	0	0	0	0
443.040376397371	2.51329136490824	reward_rtpj	445.55366776228	86	1	15	10	750	250	250	250	0	0	0	0	2000	0	BLOCKED	0.75	-1	4	1	irritable	At this moment	3	1	6	219	RTPJ	735.206575334072	0.416978776529338	n/a	n/a	n/a	n/a	1328.36616702355	0	831.793400674997	0.585495264348134	-0.000179276761310004	31.3432332951998	1174.96310530361	1	2	1	0	0	0	0
446.554357128292	2.51886941149832	reward_rtpj	449.073226539791	87	1	15	10	750	250	250	250	0	0	0	0	2000	0	BLOCKED	0.75	1	7	1	guilty	At this moment	4	1	6	219	RTPJ	422.955500781536	0.383270911360799	n/a	n/a	n/a	n/a	1428.41700404858	0.231360491929285	780.918863262555	0.596903169090956	-7.00508270100098e-05	31.2440782415973	1238.793	2	3	1	0	0	0	0
450.074070704639	2.51859578078984	reward_rtpj	452.592666485429	88	1	15	10	750	250	250	250	0	0	0	0	2000	0	BLOCKED	0.75	1	4	-1	proud	At this moment	5	1	6	219	RTPJ	340.345472872257	0.409488139825218	n/a	n/a	n/a	n/a	1260.06342494715	0	903.441029030816	0.507012693358384	-0.000123953369764974	29.741375617205	1229.54727132975	1	4	1	0	0	0	0
453.576832929075	2.56898755580187	reward_rtpj	456.145820484877	89	1	15	10	750	250	250	250	0	0	0	0	2000	0	BLOCKED	0.75	1	9	1	active	At this moment	3	1	6	219	RTPJ	1240.23965254426	0	4174.75443526842	-2.2846180584409	0.000469514795263811	23.269282923867	1461.0074906367	0.360491929285165	n/a	n/a	n/a	n/a	1234.44591346154	1	5	1	0	0	0	0
457.129611744106	2.53560707759857	reward_rtpj	459.665218821704	90	1	15	10	750	250	250	250	0	0	0	0	2000	0	BLOCKED	0.75	1	7	1	inspired	At this moment	2	1	6	219	RTPJ	540.516562610865	0.390761548064919	n/a	n/a	n/a	n/a	1411.75819672131	0.287471176018447	n/a	n/a	n/a	n/a	1390.8932038835	2	6	1	0	0	0	0
460.649324967861	2.51862963199619	reward_rtpj	463.167954599857	91	1	15	10	750	250	250	250	0	0	0	0	2000	0	BLOCKED	0.75	-1	10	-1	distressed	At this moment	3	1	6	219	RTPJ	256.354597181082	0	1054.63429693901	0.546281289220861	-0.000173641655387528	20.8301946060022	1427.01373283396	0	735.285166012025	1.01780668967207	-0.000388600304035773	21.1062970969347	1266.10914681015	0	7	1	0	0	0	0
464.168766323984	2.51866172015667	reward_rtpj	466.68742804414	92	1	15	10	750	250	250	250	0	0	0	0	2000	0	BLOCKED	0.75	-1	2	1	hostile	At this moment	1	1	6	219	RTPJ	623.181246131659	0	2934.02148700873	-1.36604499245615	0.000252099219935653	16.1362224746765	1190.67665418227	0	654.287825834332	0.604888262234996	-0.000170642706589835	27.3531331091009	1021.50345887779	0	8	1	0	0	0	0
467.688188991368	6.02164115661378	panas_none	473.709830147982	93	5	16	10	n/a	n/a	n/a	n/a	n/a	n/a	n/a	n/a	2000	0	BLOCKED	n/a	n/a	+	0	jittery	At this moment	1	1	6	219	NONE	n/a	0	215.61323669851	0.517654849552387	-8.92090228423317e-05	12.6468058668203	904.560549313358	0.0399692544196772	912.868041432094	0.360720760604837	-0.000250302657336593	15.7456882704626	995.880704563651	2	1	0	1	0	1	0
474.710653155804	6.03817853629585	panas_none	480.7488316921	94	5	16	10	n/a	n/a	n/a	n/a	n/a	n/a	n/a	n/a	2000	0	BLOCKED	n/a	n/a	+	0	strong	At this moment	1	1	6	219	NONE	n/a	0.607990012484395	n/a	n/a	n/a	n/a	1016.66878980892	0.248270561106841	877.868187657432	0.633480844233157	-0.000341234476792456	39.742794648541	1081.82208588957	5	2	0	1	0	1	0
481.75018644619	6.02106603845954	panas_none	487.771252484649	95	5	16	10	n/a	n/a	n/a	n/a	n/a	n/a	n/a	n/a	2000	0	BLOCKED	n/a	n/a	+	0	enthusiastic	At this moment	2	1	6	219	NONE	n/a	0	347.95080635783	0.502705660057454	-0.000109981010557924	15.3118273201151	912.720349563046	0	1014.12032297057	-0.110618938156898	3.12256379607874e-05	16.9815232876603	946.522674865488	3	3	0	1	0	1	0
488.755323016465	10.6087380581796	panas_none	499.364061074644	96	5	16	10	n/a	n/a	n/a	n/a	n/a	n/a	n/a	n/a	2000	0	BLOCKED	n/a	n/a	+	0	scared	At this moment	2	1	6	219	NONE	n/a	0	1494.19646564348	-0.122507038879407	1.90303594567295e-05	19.9127738800625	1322.10112359551	0.660261337432744	n/a	n/a	n/a	n/a	1106.34841628959	6	4	0	1	0	1	0
