onset	duration	trial_type	offset	trial	block	blockCntr	frequency	amplitude_1	amplitude_2	amplitude_3	amplitude_4	amplitude_5	amplitude_6	amplitude_7	amplitude_8	transition	sham	mode	rewardFraction	guess	outcome	correct	word	when	answer	runNr	scanNr	subjectNr	target	reactionTime	outcomeEyeClosed	outcomeParms_1	outcomeParms_2	outcomeParms_3	outcomeSigma	outcomePupilArea	guessEyeClosed	guessParms_1	guessParms_2	guessParms_3	guessSigma	guessPupilArea	nrBlinks	trialInBlock	isReward	isPanas	isPunish	beforePanasReward	beforePanasVLPFC
20.3553461481333	2.51046796140075	reward_vlpfc	22.865814109534	1	2	1	10	0	0	0	0	250	250	250	750	2000	0	BLOCKED	0.75	1	9	1	active	At this moment	5	3	12	219	VLPFC	533.709646075964	0.374531835205993	n/a	n/a	n/a	n/a	1143.39121756487	0	859.407006581153	0.261214636784794	2.46040173493963e-05	48.9351067766665	1102.78785549577	1	1	1	0	0	0	0
23.8666709685922	2.51859119677544	reward_vlpfc	26.3852621653676	2	2	1	10	0	0	0	0	250	250	250	750	2000	0	BLOCKED	0.75	1	2	-1	excited	At this moment	2	3	12	219	VLPFC	289.819350838661	0	6229.96855658627	-4.71755416390428	0.00113588358264855	19.9664478081987	1389.08239700375	0.230591852421214	954.495343897999	0.311735568578538	-7.27971833217304e-05	29.3962690559652	1174.8971028971	1	2	1	0	0	0	0
27.369463165462	2.51866383585334	reward_vlpfc	29.8881270013154	3	2	1	10	0	0	0	0	250	250	250	750	2000	0	BLOCKED	0.75	1	0	-1	guilty	At this moment	5	3	12	219	VLPFC	857.131271153688	0.374531835205993	n/a	n/a	n/a	n/a	1309.75449101796	0	860.022352165207	0.70776650813459	-0.000275048810400431	32.0573540200337	1226.3335895465	1	3	1	0	0	0	0
30.8722059959769	2.51871496528387	reward_vlpfc	33.3909209612608	4	2	1	10	0	0	0	0	250	250	250	750	2000	0	BLOCKED	0.75	1	10	1	strong	At this moment	5	3	12	219	VLPFC	339.955125957727	0	6906.42659480989	-4.87433629932429	0.00105727093420792	22.4032409296033	1377.82397003745	0	872.273675148442	0.66091503917975	-0.00024176507815434	49.3327578067541	1225.98770176787	0	4	1	0	0	0	0
34.3752164627016	2.51870826560259	reward_vlpfc	36.8939247283041	5	2	1	10	0	0	0	0	250	250	250	750	2000	0	BLOCKED	0.75	1	6	1	afraid	At this moment	1	3	12	219	VLPFC	541.809961348772	0	7517.83641327771	-5.29300686668658	0.00112056298466082	25.043042311007	1390.16229712859	0	743.346450795443	0.82578320962228	-0.000257713484781286	36.4367159127496	1223.08993082244	0	5	1	0	0	0	0
37.8946384248733	2.51872695428133	reward_vlpfc	40.4133653791547	6	2	1	10	0	0	0	0	250	250	250	750	2000	0	BLOCKED	0.75	-1	0	1	active	At this moment	5	3	12	219	VLPFC	473.106438487768	0.378277153558052	n/a	n/a	n/a	n/a	1421.3453815261	0	494.050693133999	0.986170582247864	-0.000305990348966455	31.0160358119596	1068.57417371253	1	6	1	0	0	0	0
41.41434565413	2.51884226000309	reward_vlpfc	43.9331879141331	7	2	1	10	0	0	0	0	250	250	250	750	2000	0	BLOCKED	0.75	1	7	1	upset	At this moment	3	3	12	219	VLPFC	574.107553094625	0.374531835205993	n/a	n/a	n/a	n/a	1721.23552894212	0	897.714335204738	1.41078701942186	-0.000540783800628064	19.7004998506241	1641.90315142198	1	7	1	0	0	0	0
44.9170348868668	2.51872730687261	reward_vlpfc	47.4357621937394	8	2	1	10	0	0	0	0	250	250	250	750	2000	0	BLOCKED	0.75	-1	3	1	strong	At this moment	3	3	12	219	VLPFC	441.048978805542	0.374531835205993	n/a	n/a	n/a	n/a	1455.58882235529	0.230591852421214	917.319801192833	0.915363969232483	-0.000292863742988251	42.9864979549792	1454.80919080919	2	8	1	0	0	0	0
48.4452232576013	6.02959760418534	panas_none	54.4748208617866	9	5	2	10	n/a	n/a	n/a	n/a	n/a	n/a	n/a	n/a	2000	0	BLOCKED	n/a	n/a	+	0	proud	At this moment	1	3	12	219	NONE	n/a	0.373283395755306	n/a	n/a	n/a	n/a	1037.35657370518	0.283627978478094	n/a	n/a	n/a	n/a	1346.12446351931	4	1	0	1	0	1	1
55.4588575424254	6.02162916761637	panas_none	61.4804867100418	10	5	2	10	n/a	n/a	n/a	n/a	n/a	n/a	n/a	n/a	2000	0	BLOCKED	n/a	n/a	+	0	determined	At this moment	2	3	12	219	NONE	n/a	0	1770.30090329673	-0.851207829573187	0.000225679039536973	11.8362063904995	990.149812734082	0.229823212913144	964.220582423526	0.371819759994343	-0.000262666485211567	41.5549626372275	1045.12275449102	3	2	0	1	0	1	1
62.4646185972393	6.02153466629982	panas_none	68.4861532635391	11	5	2	10	n/a	n/a	n/a	n/a	n/a	n/a	n/a	n/a	2000	0	BLOCKED	n/a	n/a	+	0	active	At this moment	2	3	12	219	NONE	n/a	0	838.915792993962	0.0909816044595931	-1.96127107231895e-05	9.8460551598183	942.45443196005	0	991.814236063775	-0.230173839481286	0.000180747493644336	14.3301163954674	942.631053036126	1	3	0	1	0	1	1
69.4703119495809	7.07247405534983	panas_none	76.5427860049307	12	5	2	10	n/a	n/a	n/a	n/a	n/a	n/a	n/a	n/a	2000	0	BLOCKED	n/a	n/a	+	0	jittery	At this moment	2	3	12	219	NONE	n/a	0.202247191011236	-4225.61806758956	4.95632386790375	-0.00104380736624436	15.7109014728238	1564.09389671362	0.237509607993851	748.910379438337	0.0621340120008357	0.000262225962787599	22.7875221482358	986.635080645161	4	4	0	1	0	1	1
77.5436950512826	2.51859578078985	punish_vlpfc	80.0622908320725	13	4	3	10	0	0	0	0	250	250	250	750	2000	0	BLOCKED	0.25	-1	3	1	distressed	At this moment	5	3	12	219	VLPFC	442.536316901445	0	4882.00621201821	-3.26082558183069	0.000726567798124459	24.7689921808419	1277.37078651685	0.230591852421214	811.07945079843	0.416592322899488	1.06345066457803e-05	35.6769048507528	1163.20979020979	1	1	0	0	1	0	0
81.0464512812197	2.51861940613389	punish_vlpfc	83.5650706873536	14	4	3	10	0	0	0	0	250	250	250	750	2000	0	BLOCKED	0.25	-1	6	-1	scared	At this moment	2	3	12	219	VLPFC	306.560190469027	0.374531835205993	n/a	n/a	n/a	n/a	1313.98203592814	0.235203689469639	710.55065779897	0.779904338716111	-0.000322160134387593	34.471019075824	1081.61708542714	2	2	0	0	1	0	0
84.5493848774433	2.51857427120208	punish_vlpfc	87.0679591486454	15	4	3	10	0	0	0	0	250	250	250	750	2000	0	BLOCKED	0.25	-1	8	-1	proud	At this moment	3	3	12	219	VLPFC	690.002147436142	0.374531835205993	n/a	n/a	n/a	n/a	1347.46107784431	0.249807840122982	920.153434184972	0.895316765538143	-0.000427072838209967	43.477364901542	1296.52868852459	2	3	0	0	1	0	0
88.0520148705542	2.5186952187717	punish_vlpfc	90.5707100893259	16	4	3	10	0	0	0	0	250	250	250	750	2000	0	BLOCKED	0.25	-1	7	-1	afraid	At this moment	4	3	12	219	VLPFC	274.018587857485	0.375780274656679	n/a	n/a	n/a	n/a	1199.036	0.230591852421214	726.585693958223	1.28135051332932	-0.000582877303257182	35.6565221950212	1341.55344655345	2	4	0	0	1	0	0
91.5549022739828	2.51874211680889	punish_vlpfc	94.0736443907917	17	4	3	10	0	0	0	0	250	250	250	750	2000	0	BLOCKED	0.25	1	1	-1	upset	At this moment	1	3	12	219	VLPFC	290.900826871395	0	3015.82114572094	-1.44693894516257	0.000359333253442322	23.2362119646867	1579.45443196005	0.230591852421214	650.220736966033	1.00450824834298	-0.000325935927425956	45.7980217529839	1240.52447552448	3	5	0	0	1	0	0
95.05779567191	2.51870050802827	punish_vlpfc	97.5764961799383	18	4	3	10	0	0	0	0	250	250	250	750	2000	0	BLOCKED	0.25	1	4	-1	interested	At this moment	2	3	12	219	VLPFC	706.978535145521	0	3335.05230701286	-1.48903519963553	0.000277842926103587	18.9167498985336	1447.73657927591	0.259031514219831	n/a	n/a	n/a	n/a	1386.29979253112	1	6	0	0	1	0	0
98.560564948678	2.5187854886949	punish_vlpfc	101.079350437373	19	4	3	10	0	0	0	0	250	250	250	750	2000	0	BLOCKED	0.25	-1	6	-1	active	At this moment	1	3	12	219	VLPFC	307.397655576468	0	1247.91939425185	-0.06210085807923	3.91482249500526e-07	8.24637024637599	1119.18851435705	0.230591852421214	868.507002142715	0.651447680826568	-0.000318934540300322	30.1751940965025	1138.81218781219	1	7	0	0	1	0	0
102.063517586231	2.53535072511436	punish_vlpfc	104.598868311346	20	4	3	10	0	0	0	0	250	250	250	750	2000	0	BLOCKED	0.25	1	10	1	alert	At this moment	3	3	12	219	VLPFC	1205.31541758776	0.374531835205993	n/a	n/a	n/a	n/a	1323.50099800399	0	864.349748872805	0.337141036687844	-9.87848148519834e-06	23.2607773275483	1142.08916218294	2	8	0	0	1	0	0
105.599689203471	6.02163621997833	panas_none	111.621325423449	21	5	4	10	n/a	n/a	n/a	n/a	n/a	n/a	n/a	n/a	2000	0	BLOCKED	n/a	n/a	+	0	inspired	At this moment	1	3	12	219	NONE	n/a	0	1576.95193329693	-0.574448231573997	0.000141139088267488	9.63876452019082	1000.56429463171	0	649.577064160133	1.20535054737847	-0.000558441036308315	47.6222522162158	1199.23443504996	2	1	0	1	0	0	1
112.621997511238	6.02172155323625	panas_none	118.643719064474	22	5	4	10	n/a	n/a	n/a	n/a	n/a	n/a	n/a	n/a	2000	0	BLOCKED	n/a	n/a	+	0	enthusiastic	At this moment	2	3	12	219	NONE	n/a	0	663.797536781357	0.212766234220609	-5.94936494040988e-05	10.8528647501257	845.061173533084	0	907.529139847232	-0.0361772240112159	1.13587426657335e-05	13.7347122698748	886.621060722521	2	2	0	1	0	0	1
119.627759271264	6.02158191695808	panas_none	125.649341188222	23	5	4	10	n/a	n/a	n/a	n/a	n/a	n/a	n/a	n/a	2000	0	BLOCKED	n/a	n/a	+	0	nervous	At this moment	1	3	12	219	NONE	n/a	0.383270911360799	n/a	n/a	n/a	n/a	802.763157894737	0	770.519640594806	0.0533699265279845	-2.00638421269722e-05	10.8418235949115	799.189085318985	2	3	0	1	0	0	1
126.63347942251	11.8096926626265	panas_none	138.443172085136	24	5	4	10	n/a	n/a	n/a	n/a	n/a	n/a	n/a	n/a	2000	0	BLOCKED	n/a	n/a	+	0	strong	At this moment	3	3	12	219	NONE	n/a	0	603.830082563742	0.283759089036652	-5.77730849083415e-05	9.6125380202716	942.10986267166	0.235203689469639	625.129479758227	0.326749446085359	-7.54516322758067e-05	36.1824241016592	833.569849246231	4	4	0	1	0	0	1
139.444727830887	2.51788173156976	reward_rtpj	141.962609562457	25	1	5	10	750	250	250	250	0	0	0	0	2000	0	BLOCKED	0.75	1	10	1	ashamed	At this moment	2	3	12	219	RTPJ	472.58491808176	0.374531835205993	n/a	n/a	n/a	n/a	1023.3373253493	0.230591852421214	501.252308600149	0.717990667150506	-0.000233501768019494	35.2492027762212	875.442557442557	2	1	1	0	0	0	0
142.946691025436	2.51876609477401	reward_rtpj	145.46545712021	26	1	5	10	750	250	250	250	0	0	0	0	2000	0	BLOCKED	0.75	1	7	1	active	At this moment	1	3	12	219	RTPJ	1257.05066296458	0.374531835205993	n/a	n/a	n/a	n/a	1365.12175648703	0	694.486781072474	0.943811104465485	-0.000308757200082323	17.865012556545	1237.38893159108	2	2	1	0	0	0	0
146.44953223604	2.51935179144144	reward_rtpj	148.968884027481	27	1	5	10	750	250	250	250	0	0	0	0	2000	0	BLOCKED	0.75	-1	10	-1	determined	At this moment	3	3	12	219	RTPJ	891.730040758848	0.374531835205993	n/a	n/a	n/a	n/a	1233.95209580838	0	813.828076790515	0.807555755885988	-0.000315968276603317	25.1260740388227	1229.69254419677	1	3	1	0	0	0	0
149.97689689374	2.51092283722758	reward_rtpj	152.487819730967	28	1	5	10	750	250	250	250	0	0	0	0	2000	0	BLOCKED	0.75	1	6	1	inspired	At this moment	4	3	12	219	RTPJ	266.223638832569	0.374531835205993	n/a	n/a	n/a	n/a	1316.47305389222	0.230591852421214	345.252523172923	1.68483940207969	-0.000622682352436427	33.8790961936528	1338.37162837163	2	4	1	0	0	0	0
153.471935397774	2.51877349969743	reward_rtpj	155.990708897471	29	1	5	10	750	250	250	250	0	0	0	0	2000	0	BLOCKED	0.75	1	2	-1	proud	At this moment	4	3	12	219	RTPJ	322.98014870286	0.374531835205993	n/a	n/a	n/a	n/a	1181.32335329341	0	780.335065880667	0.472496133777428	-0.000149372639614286	20.4278616677115	1052.93620292083	1	5	1	0	0	0	0
156.974767087728	2.5353073531985	reward_rtpj	159.510074440926	30	1	5	10	750	250	250	250	0	0	0	0	2000	0	BLOCKED	0.75	1	9	1	jittery	At this moment	1	3	12	219	RTPJ	239.665592223406	0	4534.51525698697	-2.82453082769912	0.000583882883946847	27.9234737921569	1202.92634207241	0.391237509607994	n/a	n/a	n/a	n/a	1147.98232323232	2	6	1	0	0	0	0
160.494306471348	2.51875904238224	reward_rtpj	163.01306551373	31	1	5	10	750	250	250	250	0	0	0	0	2000	0	BLOCKED	0.75	1	8	1	scared	At this moment	2	3	12	219	RTPJ	422.834200561047	0	2333.44590033674	-1.24592229644947	0.000297431874687508	14.9244896802205	1044.65667915106	0.230591852421214	676.098496969716	0.656603978494792	-0.000313264128040881	33.453050057349	976.649350649351	1	7	1	0	0	0	0
164.000692539573	2.51515529775619	reward_rtpj	166.515847837329	32	1	5	10	750	250	250	250	0	0	0	0	2000	0	BLOCKED	0.75	1	7	1	distressed	At this moment	3	3	12	219	RTPJ	552.686782062054	0	1749.73410491129	-0.549775086743618	0.000107279122213832	17.8978393141354	1073.70911360799	0.239815526518063	728.309996588154	0.420398312007208	-0.000150838973340756	28.435125190888	963.516683518706	1	8	1	0	0	0	0
167.516682834148	6.02160483705998	panas_none	173.538287671208	33	5	6	10	n/a	n/a	n/a	n/a	n/a	n/a	n/a	n/a	2000	0	BLOCKED	n/a	n/a	+	0	enthusiastic	At this moment	2	3	12	219	NONE	n/a	0	1800.60459517428	-0.943643964973703	0.000218608846931974	7.19918688288847	794.655430711611	0.459646425826287	n/a	n/a	n/a	n/a	1030.34423897582	3	1	0	1	0	1	0
174.522380770534	6.02155018141866	panas_none	180.543930951953	34	5	6	10	n/a	n/a	n/a	n/a	n/a	n/a	n/a	n/a	2000	0	BLOCKED	n/a	n/a	+	0	interested	At this moment	3	3	12	219	NONE	n/a	0	1203.65976283792	-0.30625992673332	6.23099692380547e-05	14.6133965489896	838.94631710362	0	812.020725914272	0.243589840597252	-0.000134146388235255	14.1752163010897	903.754803996925	3	2	0	1	0	1	0
181.544677441925	6.02165032464265	panas_none	187.566327766567	35	5	6	10	n/a	n/a	n/a	n/a	n/a	n/a	n/a	n/a	2000	0	BLOCKED	n/a	n/a	+	0	attentive	At this moment	3	3	12	219	NONE	n/a	0	1501.42534332564	-0.697191659138539	0.000152481116994158	9.27836452872263	717.978776529338	0	812.640313883639	0.0532712042003644	-3.98941028099465e-05	9.43967875857473	823.557263643351	2	3	0	1	0	1	0
188.550452601433	12.9438725585938	panas_none	201.494325160027	36	5	6	10	n/a	n/a	n/a	n/a	n/a	n/a	n/a	n/a	2000	0	BLOCKED	n/a	n/a	+	0	inspired	At this moment	5	3	12	219	NONE	n/a	0	588.803167239284	0.364664827534761	-8.67122648830736e-05	10.7495956998149	967.779026217228	0.404304381245196	n/a	n/a	n/a	n/a	952.56	14	4	0	1	0	1	0
202.495019815296	2.51872060719131	reward_rtpj	205.013740422487	37	1	7	10	750	250	250	250	0	0	0	0	2000	0	BLOCKED	0.75	-1	2	1	jittery	At this moment	3	3	12	219	RTPJ	940.563601672649	0.374531835205993	n/a	n/a	n/a	n/a	1191.12375249501	0.1076095311299	373.693409382923	0.520912793223321	-3.10686732148709e-05	9.65468076809808	822.921619293712	2	1	1	0	0	0	0
206.015035584331	2.5183094559014	reward_rtpj	208.533345040232	38	1	7	10	750	250	250	250	0	0	0	0	2000	0	BLOCKED	0.75	-1	1	1	strong	At this moment	4	3	12	219	RTPJ	456.18329590559	0.383270911360799	n/a	n/a	n/a	n/a	1368.93319838057	0.230591852421214	990.267564948405	0.707084130177544	-0.000291740896537934	30.4344345078	1329.92507492508	2	2	1	0	0	0	0
209.53416981113	2.51869662922621	reward_rtpj	212.052866440356	39	1	7	10	750	250	250	250	0	0	0	0	2000	0	BLOCKED	0.75	1	1	-1	interested	At this moment	3	3	12	219	RTPJ	289.579571336508	0	1775.86635951629	-0.271825305996795	5.18042898590164e-05	28.1568342501755	1436.42946317104	0.249807840122982	955.987753859068	0.769569066884024	-0.000349941930416633	29.3741408284229	1308.75614754098	1	3	1	0	0	0	0
213.036948608547	2.51912188521027	reward_rtpj	215.556070493758	40	1	7	10	750	250	250	250	0	0	0	0	2000	0	BLOCKED	0.75	1	7	1	irritable	At this moment	2	3	12	219	RTPJ	339.82606819272	0.379525593008739	n/a	n/a	n/a	n/a	1353.77665995976	0.392774788624135	n/a	n/a	n/a	n/a	1362.35696202532	3	4	1	0	0	0	0
216.559514150351	2.5160759804547	reward_rtpj	219.075590130806	41	1	7	10	750	250	250	250	0	0	0	0	2000	0	BLOCKED	0.75	-1	2	1	guilty	At this moment	5	3	12	219	RTPJ	842.890132665634	0.400749063670412	n/a	n/a	n/a	n/a	1286.93541666667	0.234435049961568	1038.52948619321	0.446282552948896	-0.000176251565031564	37.7518780492554	1249.58835341365	2	5	1	0	0	0	0
220.059424761981	2.51870191845296	reward_rtpj	222.578126680434	42	1	7	10	750	250	250	250	0	0	0	0	2000	0	BLOCKED	0.75	-1	2	1	excited	At this moment	2	3	12	219	RTPJ	308.704453766346	0	6999.74296463866	-5.16221680029527	0.00115056128778087	18.0154007648728	1276.94631710362	0.307455803228286	n/a	n/a	n/a	n/a	1244.70921198668	1	6	1	0	0	0	0
223.578867881149	2.53547237792611	reward_rtpj	226.114340259075	43	1	7	10	750	250	250	250	0	0	0	0	2000	0	BLOCKED	0.75	1	8	1	interested	At this moment	1	3	12	219	RTPJ	272.525255292654	0	5445.3806792397	-3.66485030402029	0.000790811719626256	24.8487818479347	1268.37078651685	0.289777094542659	n/a	n/a	n/a	n/a	1194.24567099567	1	7	1	0	0	0	0
227.103119284272	2.51405654352902	reward_rtpj	229.617175827801	44	1	7	10	750	250	250	250	0	0	0	0	2000	0	BLOCKED	0.75	1	0	-1	irritable	At this moment	5	3	12	219	RTPJ	336.085155576468	0	2857.63788335458	-1.47838133474701	0.000337385807938899	30.0185582601292	1258.20099875156	0.275941583397387	n/a	n/a	n/a	n/a	1085.48832271762	1	8	1	0	0	0	0
230.601313709497	6.02157909601928	panas_none	236.622892805517	45	5	8	10	n/a	n/a	n/a	n/a	n/a	n/a	n/a	n/a	2000	0	BLOCKED	n/a	n/a	+	0	hostile	At this moment	1	3	12	219	NONE	n/a	0	1761.32833046336	-0.448395088610948	8.09855609606765e-05	14.0866092065731	1181.22471910112	0.113758647194466	182.130378177926	1.96804776365568	-0.000710365121057852	68.9344356725144	1321.59670424978	5	1	0	1	0	1	0
237.623701356053	6.02152020901443	panas_none	243.645221565068	46	5	8	10	n/a	n/a	n/a	n/a	n/a	n/a	n/a	n/a	2000	0	BLOCKED	n/a	n/a	+	0	determined	At this moment	2	3	12	219	NONE	n/a	0	885.269550481924	0.0280577536022735	-2.43551868215319e-06	11.9165541904094	933.314606741573	0.249039200614912	995.921362360181	0.317948065977972	-0.000182766945529652	29.4276513788661	1065.85977482088	2	2	0	1	0	1	0
244.646121795982	6.02142676553132	panas_none	250.667548561513	47	5	8	10	n/a	n/a	n/a	n/a	n/a	n/a	n/a	n/a	2000	0	BLOCKED	n/a	n/a	+	0	scared	At this moment	1	3	12	219	NONE	n/a	0.138576779026217	1462.15641712753	-0.729221148815628	0.00020503452331968	11.4690703480221	836.346376811594	0	894.020117590357	-0.104089788322123	3.56011519454321e-05	12.1782337903145	835.927747886241	2	3	0	1	0	1	0
251.668552461803	6.98888057890537	panas_none	258.657433040708	48	5	8	10	n/a	n/a	n/a	n/a	n/a	n/a	n/a	n/a	2000	0	BLOCKED	n/a	n/a	+	0	interested	At this moment	2	3	12	219	NONE	n/a	0	4249.08191612189	-2.78947735954848	0.000642469546225701	39.2361846740753	1258.88888888889	0.564181398923905	n/a	n/a	n/a	n/a	1035.06878306878	4	4	0	1	0	1	0
259.641486294299	2.51869980278616	punish_rtpj	262.160186097086	49	3	9	10	750	250	250	250	0	0	0	0	2000	0	BLOCKED	0.25	1	0	-1	enthusiastic	At this moment	1	3	12	219	RTPJ	307.301743805408	0.393258426966292	n/a	n/a	n/a	n/a	1118.1049382716	0	625.33096220623	0.636142790391411	-0.000211101698186087	21.0131034680322	984.281322059954	1	1	0	0	1	0	0
263.144506986916	2.51860600668192	punish_rtpj	265.663112993598	50	3	9	10	750	250	250	250	0	0	0	0	2000	0	BLOCKED	0.25	1	4	-1	ashamed	At this moment	2	3	12	219	RTPJ	306.865556716919	0	3070.50106427789	-1.71693537985464	0.000390729393029948	20.0654899048677	1208.37328339576	0.266717909300538	n/a	n/a	n/a	n/a	1178.3071278826	1	2	0	0	1	0	0
266.647279084623	2.51891983574626	punish_rtpj	269.166198920369	51	3	9	10	750	250	250	250	0	0	0	0	2000	0	BLOCKED	0.25	-1	2	1	distressed	At this moment	3	3	12	219	RTPJ	256.789021223783	0	5111.89196527772	-3.49950067931751	0.00080165662246492	26.3444092600977	1340.265917603	0.23674096848578	721.168798133926	0.843695074330663	-0.000291431045038116	27.7930248786062	1203.89425981873	1	3	0	0	1	0	0
270.166675658405	2.5188112297356	punish_rtpj	272.68548688814	52	3	9	10	750	250	250	250	0	0	0	0	2000	0	BLOCKED	0.25	1	1	-1	excited	At this moment	5	3	12	219	RTPJ	323.288335889578	0	1349.12616231577	-0.191981197005837	4.09608119852495e-05	15.794590575023	1128.6354556804	0.275941583397387	n/a	n/a	n/a	n/a	1150.93949044586	1	4	0	0	1	0	0
273.669701992869	2.51874952179196	punish_rtpj	276.188451514661	53	3	9	10	750	250	250	250	0	0	0	0	2000	0	BLOCKED	0.25	-1	2	1	inspired	At this moment	1	3	12	219	RTPJ	273.274918824434	0.392009987515606	n/a	n/a	n/a	n/a	1161.34291581109	0	847.025832067735	0.517303531508293	-0.000172112088740319	20.0597561757029	1138.18216756341	1	5	0	0	1	0	0
277.172471622258	2.51871320223813	punish_rtpj	279.691184824497	54	3	9	10	750	250	250	250	0	0	0	0	2000	0	BLOCKED	0.25	1	3	-1	jittery	At this moment	1	3	12	219	RTPJ	289.738601565361	0	-1220.1188700954	2.89187599431353	-0.000782098925673578	24.8498683025911	1361.48439450687	0.420445810914681	n/a	n/a	n/a	n/a	1316.65782493369	2	6	0	0	1	0	0
280.675346684098	2.53539550745484	punish_rtpj	283.210742191553	55	3	9	10	750	250	250	250	0	0	0	0	2000	0	BLOCKED	0.25	-1	8	-1	afraid	At this moment	3	3	12	219	RTPJ	307.10357311368	0	263.876097180849	0.78150476749198	-0.00016572965123271	16.4456609849009	1164.98751560549	0.201383551114527	828.450647465732	-0.162724937177658	0.000179941288671468	22.1236112828529	858.442733397498	1	7	0	0	1	0	0
284.21151900658	2.51876715260744	punish_rtpj	286.730286159188	56	3	9	10	750	250	250	250	0	0	0	0	2000	0	BLOCKED	0.25	-1	7	-1	interested	At this moment	5	3	12	219	RTPJ	289.717797189951	0	1487.28460722508	-0.376493543816744	8.20967832497144e-05	14.4755850148611	1062.93008739076	0.244427363566487	874.10797688772	0.577175712527575	-0.000332391917144709	36.2876168403531	1065.38250254323	1	8	0	0	1	0	0
287.714389484406	6.02155582329635	panas_none	293.735945307702	57	5	10	10	n/a	n/a	n/a	n/a	n/a	n/a	n/a	n/a	2000	0	BLOCKED	n/a	n/a	+	0	scared	At this moment	1	3	12	219	NONE	n/a	0.373283395755306	n/a	n/a	n/a	n/a	813.681274900398	0	818.04968192341	-0.000910786826769218	3.80244401024575e-05	34.4897722990309	852.149116064566	1	1	0	1	0	0	0
294.719934385061	6.02176245680454	panas_none	300.741696841866	58	5	10	10	n/a	n/a	n/a	n/a	n/a	n/a	n/a	n/a	2000	0	BLOCKED	n/a	n/a	+	0	guilty	At this moment	1	3	12	219	NONE	n/a	0.0262172284644195	3584.88360225197	-2.59368578467453	0.000574729959309384	33.7512830764884	703.730769230769	0	769.373122360448	-0.0118509136628037	7.29450827416036e-06	11.7617691684599	765.308224442736	5	2	0	1	0	0	0
301.742453205109	6.02146449550986	panas_none	307.763917700618	59	5	10	10	n/a	n/a	n/a	n/a	n/a	n/a	n/a	n/a	2000	0	BLOCKED	n/a	n/a	+	0	afraid	At this moment	1	3	12	219	NONE	n/a	0.377028714107366	n/a	n/a	n/a	n/a	740.156312625251	0	829.071691834344	0.144599975564443	-8.79499169335041e-05	11.2372746527259	876.013835511145	2	3	0	1	0	0	0
308.748161719978	5.85476944321391	panas_none	314.602931163192	60	5	10	10	n/a	n/a	n/a	n/a	n/a	n/a	n/a	n/a	2000	0	BLOCKED	n/a	n/a	+	0	upset	At this moment	2	3	12	219	NONE	n/a	0.392009987515606	n/a	n/a	n/a	n/a	1135.40657084189	0.234435049961568	764.364464690767	0.345318730381542	-4.83610214938609e-05	35.9204881250799	1007.28413654618	2	4	0	1	0	0	0
315.586959733635	2.53547378838061	punish_rtpj	318.122433522016	61	3	11	10	750	250	250	250	0	0	0	0	2000	0	BLOCKED	0.25	1	1	-1	hostile	At this moment	4	3	12	219	RTPJ	556.292642384768	0.398252184769039	n/a	n/a	n/a	n/a	1156.51244813278	0.378939277478862	n/a	n/a	n/a	n/a	1034.1745049505	3	1	0	0	1	0	0
319.10662500146	2.51868111407759	punish_rtpj	321.625306115538	62	3	11	10	750	250	250	250	0	0	0	0	2000	0	BLOCKED	0.25	1	7	1	determined	At this moment	5	3	12	219	RTPJ	306.842283993959	0.388264669163546	n/a	n/a	n/a	n/a	1063.84081632653	0.239046887009992	931.779096506862	0.400083838032223	-0.000232452302945085	46.6507385531335	1038.38888888889	2	2	0	0	1	0	0
322.609499710649	2.51859965959193	punish_rtpj	325.128099370241	63	3	11	10	750	250	250	250	0	0	0	0	2000	0	BLOCKED	0.25	1	3	-1	proud	At this moment	3	3	12	219	RTPJ	290.598281592131	0.491885143570537	n/a	n/a	n/a	n/a	1042.25798525799	0.275941583397387	n/a	n/a	n/a	n/a	1153.47664543524	2	3	0	0	1	0	0
326.128933309227	2.5187075603306	punish_rtpj	328.647640869558	64	3	11	10	750	250	250	250	0	0	0	0	2000	0	BLOCKED	0.25	-1	7	-1	jittery	At this moment	2	3	12	219	RTPJ	656.402341485023	0	2049.89789917844	-0.631851164330633	0.000124116933658626	22.6481995977864	1277.41822721598	0.261337432744043	n/a	n/a	n/a	n/a	1177.03850156087	3	4	0	0	1	0	0
329.6316595667	2.51882004517313	punish_rtpj	332.150479611874	65	3	11	10	750	250	250	250	0	0	0	0	2000	0	BLOCKED	0.25	-1	9	-1	guilty	At this moment	2	3	12	219	RTPJ	440.821893572807	0	1486.75478320994	-0.160766581214592	2.46444061150855e-05	19.3204819309152	1259.64544319601	0.243658724058417	789.628915604738	0.843868762292165	-0.000390716275164897	36.7707780808279	1164.17073170732	1	5	0	0	1	0	0
333.134724689066	2.51865748876338	punish_rtpj	335.65338217783	66	3	11	10	750	250	250	250	0	0	0	0	2000	0	BLOCKED	0.25	-1	9	-1	interested	At this moment	4	3	12	219	RTPJ	690.154477953911	0	2609.65614850716	-1.23933957614441	0.000287427381653844	14.8597357278362	1290.48564294632	0.230591852421214	750.418465300143	0.787618453799827	-0.000215880814324571	34.5142083163298	1214.43156843157	1	6	0	0	1	0	0
336.637474571913	2.518785841316	punish_rtpj	339.156260413229	67	3	11	10	750	250	250	250	0	0	0	0	2000	0	BLOCKED	0.25	-1	2	1	inspired	At this moment	4	3	12	219	RTPJ	206.911361604929	0.364544319600499	n/a	n/a	n/a	n/a	1296.27701375246	0.281322059953882	n/a	n/a	n/a	n/a	1327.90481283422	2	7	0	0	1	0	0
340.140276642054	2.51874740606542	punish_rtpj	342.65902404812	68	3	11	10	750	250	250	250	0	0	0	0	2000	0	BLOCKED	0.25	-1	10	-1	irritable	At this moment	5	3	12	219	RTPJ	356.494268745184	0.374531835205993	n/a	n/a	n/a	n/a	1299.46107784431	0.29054573405073	n/a	n/a	n/a	n/a	1202.70314192849	3	8	0	0	1	0	0
343.6598943066	6.02158050650354	panas_none	349.681474813104	69	5	12	10	n/a	n/a	n/a	n/a	n/a	n/a	n/a	n/a	2000	0	BLOCKED	n/a	n/a	+	0	enthusiastic	At this moment	1	3	12	219	NONE	n/a	0	18.7053796135383	0.756799497509396	-0.000162325724491967	9.30949743755059	883.298377028714	0	1169.19951308	-0.192249072796983	1.04735642896816e-05	25.1552025718276	1015.04842428901	4	1	0	1	0	0	0
350.68214619565	6.02172472682594	panas_none	356.703870922476	70	5	12	10	n/a	n/a	n/a	n/a	n/a	n/a	n/a	n/a	2000	0	BLOCKED	n/a	n/a	+	0	nervous	At this moment	2	3	12	219	NONE	n/a	0	2332.58257261019	-1.18862025784302	0.000247783903350954	17.3503921626323	942.23595505618	0	1031.0677070021	-0.0667953871897234	3.33438631513462e-05	21.7694339619448	1003.74634896234	2	2	0	1	0	0	0
357.687926997006	6.02156851753591	panas_none	363.709495514542	71	5	12	10	n/a	n/a	n/a	n/a	n/a	n/a	n/a	n/a	2000	0	BLOCKED	n/a	n/a	+	0	alert	At this moment	3	3	12	219	NONE	n/a	0.415730337078652	n/a	n/a	n/a	n/a	948.985042735043	0	865.43695402423	0.0964616362342589	-3.51064851528203e-05	17.0137631255808	916.714834742506	1	3	0	1	0	0	0
364.693583324611	10.6252355921566	panas_none	375.318818916768	72	5	12	10	n/a	n/a	n/a	n/a	n/a	n/a	n/a	n/a	2000	0	BLOCKED	n/a	n/a	+	0	jittery	At this moment	5	3	12	219	NONE	n/a	0	719.739330949705	0.656873870079323	-0.00019383925663027	14.0263472092916	1233.81398252185	0.248270561106841	733.408653412921	0.294699100514589	6.60393294484039e-05	42.4968194990748	1075.163599182	5	4	0	1	0	0	0
376.30317859447	2.53524740836025	punish_vlpfc	378.83842600283	73	4	13	10	0	0	0	0	250	250	250	750	2000	0	BLOCKED	0.25	-1	0	1	irritable	At this moment	5	3	12	219	VLPFC	524.026080936193	0.385767790262172	n/a	n/a	n/a	n/a	1057.77845528455	0.261337432744043	n/a	n/a	n/a	n/a	1061.11342351717	2	1	0	0	1	0	0
379.839392878354	2.51857145020369	punish_vlpfc	382.357964328557	74	4	13	10	0	0	0	0	250	250	250	750	2000	0	BLOCKED	0.25	1	1	-1	scared	At this moment	2	3	12	219	VLPFC	372.782348275185	0	3477.84024709013	-1.8074833442032	0.000368114305944276	31.7032730999036	1325.57053682896	0.309761721752498	n/a	n/a	n/a	n/a	1229.03340757238	1	2	0	0	1	0	0
383.358863854259	2.51861799564955	punish_vlpfc	385.877481849909	75	4	13	10	0	0	0	0	250	250	250	750	2000	0	BLOCKED	0.25	1	4	-1	attentive	At this moment	1	3	12	219	VLPFC	391.109963923693	0.426966292134831	n/a	n/a	n/a	n/a	1320.58387799564	0.244427363566487	284.704982159398	1.43268392853225	-0.000577564063917177	44.149628508395	1079.84537131231	2	3	0	0	1	0	0
386.861554850101	2.5187675051987	punish_vlpfc	389.3803223553	76	4	13	10	0	0	0	0	250	250	250	750	2000	0	BLOCKED	0.25	-1	6	-1	ashamed	At this moment	3	3	12	219	VLPFC	189.546742707491	0	2542.09943199289	-1.11913361004472	0.00022924680996128	16.5308454142286	1215.01997503121	0.231360491929285	727.242385671279	1.18904450695641	-0.00058254526388253	48.9080122368977	1259.003	1	4	0	0	1	0	0
390.36461433056	2.51860812237862	punish_vlpfc	392.883222452939	77	4	13	10	0	0	0	0	250	250	250	750	2000	0	BLOCKED	0.25	-1	3	1	hostile	At this moment	4	3	12	219	VLPFC	389.616278767586	0.382022471910112	n/a	n/a	n/a	n/a	1238.56767676768	0.242890084550346	242.229340029004	1.91736152096056	-0.000849913120691967	35.0125676693017	1227.41624365482	3	5	0	0	1	0	0
393.867330362171	2.51869204521176	punish_vlpfc	396.386022407383	78	4	13	10	0	0	0	0	250	250	250	750	2000	0	BLOCKED	0.25	1	1	-1	afraid	At this moment	2	3	12	219	VLPFC	856.68344771862	0.434456928838951	n/a	n/a	n/a	n/a	1147.51876379691	0.248270561106841	804.662939022025	0.394356868332564	-0.000157596360821691	33.8656625385331	1003.15439672802	2	6	0	0	1	0	0
397.370328134716	2.53556511616705	punish_vlpfc	399.905893250883	79	4	13	10	0	0	0	0	250	250	250	750	2000	0	BLOCKED	0.25	-1	10	-1	enthusiastic	At this moment	1	3	12	219	VLPFC	115.058892309666	0.405742821473159	n/a	n/a	n/a	n/a	1110.54201680672	0.427363566487317	n/a	n/a	n/a	n/a	1237.96644295302	3	7	0	0	1	0	0
400.908889436632	2.51620539087054	punish_vlpfc	403.425094827503	80	4	13	10	0	0	0	0	250	250	250	750	2000	0	BLOCKED	0.25	-1	8	-1	nervous	At this moment	5	3	12	219	VLPFC	755.11744081974	0	1903.44639775172	-0.335811644234063	1.72645721520861e-05	20.6212227213372	1274.69912609238	0.23674096848578	740.021571979724	0.870449133981228	-0.000332733293415834	25.7722360109367	1215.7693856999	1	8	0	0	1	0	0
404.425910782993	6.0214641429186	panas_none	410.447374925911	81	5	14	10	n/a	n/a	n/a	n/a	n/a	n/a	n/a	n/a	2000	0	BLOCKED	n/a	n/a	+	0	proud	At this moment	1	3	12	219	NONE	n/a	0.373283395755306	n/a	n/a	n/a	n/a	875.607569721116	0.498847040737894	n/a	n/a	n/a	n/a	1066.96319018405	6	1	0	1	0	0	1
411.432033975333	6.02154277649521	panas_none	417.453576751828	82	5	14	10	n/a	n/a	n/a	n/a	n/a	n/a	n/a	n/a	2000	0	BLOCKED	n/a	n/a	+	0	attentive	At this moment	3	3	12	219	NONE	n/a	0	176.244369340719	0.663573438136508	-0.000137601351352522	13.1489186057045	955.895131086142	0	848.388986985272	0.128764447842307	-3.74768705555148e-05	16.3850527901343	925.70099923136	2	2	0	1	0	0	1
418.453911737889	6.07173003366592	panas_none	424.525641771555	83	5	14	10	n/a	n/a	n/a	n/a	n/a	n/a	n/a	n/a	2000	0	BLOCKED	n/a	n/a	+	0	determined	At this moment	2	3	12	219	NONE	n/a	0.117353308364544	1731.34162319453	-1.00250821963526	0.00024507157723806	9.58418356082807	716.487977369165	0	901.887362143917	0.0564763799185372	-9.73749727867041e-05	13.992062118212	865.774019984627	2	3	0	1	0	0	1
425.526449264258	13.2940662686825	panas_none	438.820515532941	84	5	14	10	n/a	n/a	n/a	n/a	n/a	n/a	n/a	n/a	2000	0	BLOCKED	n/a	n/a	+	0	hostile	At this moment	1	3	12	219	NONE	n/a	0	1430.14290273583	-0.191008524422282	4.9640657971883e-05	13.6272741531778	1250.46192259675	0.245196003074558	682.238301455396	0.711926640017077	-0.000235882781947227	30.4050980209743	1080.24745417515	5	4	0	1	0	0	1
439.804643188715	2.51872342813016	reward_vlpfc	442.323366616845	85	2	15	10	0	0	0	0	250	250	250	750	2000	0	BLOCKED	0.75	1	10	1	enthusiastic	At this moment	2	3	12	219	VLPFC	790.040970563889	0.514357053682896	n/a	n/a	n/a	n/a	836.303341902314	0	601.206274236888	0.396564633431109	-0.000170899862676269	12.3112493205419	790.641045349731	1	1	1	0	0	0	0
443.307505556345	2.51896602854129	reward_vlpfc	445.826471584886	86	2	15	10	0	0	0	0	250	250	250	750	2000	0	BLOCKED	0.75	1	6	1	jittery	At this moment	2	3	12	219	VLPFC	559.204905331135	0.392009987515606	n/a	n/a	n/a	n/a	1190.75564681725	0.278247501921599	n/a	n/a	n/a	n/a	1048.06602768903	2	2	1	0	0	0	0
446.810533301324	2.51855452460052	reward_vlpfc	449.329087825924	87	2	15	10	0	0	0	0	250	250	250	750	2000	0	BLOCKED	0.75	-1	6	-1	alert	At this moment	1	3	12	219	VLPFC	606.137861192226	0	1380.16505831931	0.051070309843638	-2.37844730757314e-05	21.0806096080554	1380.9163545568	0.245196003074558	989.451614592529	0.638311206488797	-0.000255503953259586	30.2575116301657	1261.48778004073	1	3	1	0	0	0	0
450.313259911448	2.51863809481267	reward_vlpfc	452.83189800626	88	2	15	10	0	0	0	0	250	250	250	750	2000	0	BLOCKED	0.75	-1	2	1	guilty	At this moment	2	3	12	219	VLPFC	674.125924408436	0.384519350811486	n/a	n/a	n/a	n/a	1160.36713995943	0.249807840122982	888.059190765231	0.859080388834477	-0.000425644913290335	34.9268877813851	1243.10553278689	2	4	1	0	0	0	0
453.815984405875	2.51868569809199	reward_vlpfc	456.334670103967	89	2	15	10	0	0	0	0	250	250	250	750	2000	0	BLOCKED	0.75	1	7	1	irritable	At this moment	5	3	12	219	VLPFC	373.406832784414	0.418227215980025	n/a	n/a	n/a	n/a	977.210300429185	0	728.25128942289	0.97174234724688	-0.000430605407692899	26.2759367636382	1183.17986164489	1	5	1	0	0	0	0
457.322118353039	2.51553400832415	reward_vlpfc	459.837652361363	90	2	15	10	0	0	0	0	250	250	250	750	2000	0	BLOCKED	0.75	1	8	1	active	At this moment	4	3	12	219	VLPFC	120.454636007547	0.390761548064919	n/a	n/a	n/a	n/a	1125.01639344262	0	687.908736304761	0.292280324352581	3.39614542297915e-05	21.0758660625101	965.873943120676	1	6	1	0	0	0	0
460.843396843165	2.51373143076893	reward_vlpfc	463.357128273934	91	2	15	10	0	0	0	0	250	250	250	750	2000	0	BLOCKED	0.75	1	2	-1	ashamed	At this moment	1	3	12	219	VLPFC	268.012464284897	0	1244.33731131924	-0.150056601102741	3.60841226144195e-05	15.6843453588108	1090.29338327091	0.242121445042275	1001.02507294723	0.166498677378394	-0.000109977264587176	40.2165230257898	1012.52332657201	1	7	1	0	0	0	0
464.341236535788	2.51874105891585	reward_vlpfc	466.859977594703	92	2	15	10	0	0	0	0	250	250	250	750	2000	0	BLOCKED	0.75	1	10	1	strong	At this moment	3	3	12	219	VLPFC	506.604338079691	0.456928838951311	n/a	n/a	n/a	n/a	944.609195402299	0.272867025365104	n/a	n/a	n/a	n/a	1003.94080338266	2	8	1	0	0	0	0
467.860726200372	6.02161612081528	panas_none	473.882342321187	93	5	16	10	n/a	n/a	n/a	n/a	n/a	n/a	n/a	n/a	2000	0	BLOCKED	n/a	n/a	+	0	upset	At this moment	1	3	12	219	NONE	n/a	0	1728.72180538606	-0.74804641997257	0.000193113609307684	12.8189714282192	1020.25717852684	0.0937740199846272	319.439727631114	1.55801512178001	-0.000702780164992795	37.1618483746856	1075.73282442748	4	1	0	1	0	1	1
474.866394516945	6.03838164362315	panas_none	480.904776160568	94	5	16	10	n/a	n/a	n/a	n/a	n/a	n/a	n/a	n/a	2000	0	BLOCKED	n/a	n/a	+	0	excited	At this moment	1	3	12	219	NONE	n/a	0	880.354893835573	0.0802647331831162	-4.76871506059436e-05	14.2139061086716	836.104868913858	0	843.336156531649	0.220182610933266	-0.000167362163733332	17.8545382700383	886.362029208301	1	2	0	1	0	1	1
481.905522297919	6.02157063320277	panas_none	487.927092931122	95	5	16	10	n/a	n/a	n/a	n/a	n/a	n/a	n/a	n/a	2000	0	BLOCKED	n/a	n/a	+	0	jittery	At this moment	2	3	12	219	NONE	n/a	0	1803.08936488419	-1.04695075171941	0.000265024053137252	9.71657877456126	787.355805243446	0	1273.04885033481	-0.746831749022575	0.000276760630021121	12.4597912958635	876.156802459646	3	3	0	1	0	1	1
488.914038348496	11.13969517681	panas_none	500.053733525306	96	5	16	10	n/a	n/a	n/a	n/a	n/a	n/a	n/a	n/a	2000	0	BLOCKED	n/a	n/a	+	0	ashamed	At this moment	5	3	12	219	NONE	n/a	0.0948813982521848	705.126519503074	0.459908711416484	-0.000112032601360375	22.4370662179871	1171.07172413793	0.775557263643351	n/a	n/a	n/a	n/a	760.359589041096	8	4	0	1	0	1	1
