onset	duration	trial_type	offset	trial	block	blockCntr	frequency	amplitude_1	amplitude_2	amplitude_3	amplitude_4	amplitude_5	amplitude_6	amplitude_7	amplitude_8	transition	sham	mode	rewardFraction	guess	outcome	correct	word	when	answer	runNr	scanNr	subjectNr	target	reactionTime	outcomeEyeClosed	outcomeParms_1	outcomeParms_2	outcomeParms_3	outcomeSigma	outcomePupilArea	guessEyeClosed	guessParms_1	guessParms_2	guessParms_3	guessSigma	guessPupilArea	nrBlinks	trialInBlock	isReward	isPanas	isPunish	beforePanasReward	beforePanasVLPFC
20.3625546952784	2.52863725206256	punish_vlpfc	22.891191947341	1	4	1	10	0	0	0	0	250	250	250	750	2000	0	BLOCKED	0.25	1	1	-1	hostile	At this moment	2	2	8	219	VLPFC	767.406139552593	0.368289637952559	n/a	n/a	n/a	n/a	1525.58300395257	0	862.165084826129	0.41038488757871	0.000103475746082418	29.4799085913009	1300.3620292083	1	1	0	0	1	0	0
23.8919338532984	2.51879077792168	punish_vlpfc	26.4107246312201	2	4	1	10	0	0	0	0	250	250	250	750	2000	0	BLOCKED	0.25	-1	7	-1	irritable	At this moment	4	2	8	219	VLPFC	273.554544001818	0	6143.67853005308	-4.05070912429675	0.000904202491458993	37.3808367042119	1672.99001248439	0	1052.66422126596	0.719528032651455	-0.000155752700679469	28.2236832718513	1529.52036894696	0	2	0	0	1	0	0
27.3949760555327	2.51867794054747	punish_vlpfc	29.9136539960802	3	4	1	10	0	0	0	0	250	250	250	750	2000	0	BLOCKED	0.25	1	0	-1	active	At this moment	3	2	8	219	VLPFC	891.526228159666	0.374531835205993	n/a	n/a	n/a	n/a	1695.73453093812	0	1090.73653265312	0.338609444472777	8.82617214806198e-05	32.3001062627329	1454.2098385857	1	3	0	0	1	0	0
30.9143920232356	2.51869345566631	punish_vlpfc	33.4330854789019	4	4	1	10	0	0	0	0	250	250	250	750	2000	0	BLOCKED	0.25	1	10	1	nervous	At this moment	3	2	8	219	VLPFC	324.216423541307	0.374531835205993	n/a	n/a	n/a	n/a	1614.13572854291	0	1091.48427327124	0.576363409748388	-7.00794010394844e-05	21.1198901867146	1521.26594926979	1	4	0	0	1	0	0
34.4339144812226	2.51881334540248	punish_vlpfc	36.9527278266251	5	4	1	10	0	0	0	0	250	250	250	750	2000	0	BLOCKED	0.25	-1	10	-1	distressed	At this moment	5	2	8	219	VLPFC	241.701249569654	0.374531835205993	n/a	n/a	n/a	n/a	1532.58483033932	0.265949269792467	n/a	n/a	n/a	n/a	1370.32356020942	2	5	0	0	1	0	0
37.953321986109	2.51889903134108	punish_vlpfc	40.4722210174501	6	4	1	10	0	0	0	0	250	250	250	750	2000	0	BLOCKED	0.25	-1	10	-1	attentive	At this moment	5	2	8	219	VLPFC	289.91773095727	0.374531835205993	n/a	n/a	n/a	n/a	1200.11976047904	0.256725595695619	n/a	n/a	n/a	n/a	1294.92244053775	2	6	0	0	1	0	0
41.4729999481738	2.51866841983796	punish_vlpfc	43.9916683680117	7	4	1	10	0	0	0	0	250	250	250	750	2000	0	BLOCKED	0.25	1	6	1	hostile	At this moment	4	2	8	219	VLPFC	323.061250597239	0.392009987515606	n/a	n/a	n/a	n/a	1594.82546201232	0	847.746688503177	0.986401356847216	-0.000272830978102892	23.2093374550238	1460.45042275173	2	7	0	0	1	0	0
44.992575651288	2.51862293228507	punish_vlpfc	47.5111985835731	8	4	1	10	0	0	0	0	250	250	250	750	2000	0	BLOCKED	0.25	-1	8	-1	jittery	At this moment	3	2	8	219	VLPFC	256.314751505852	0	2086.2101381554	-0.510329286836814	0.000136221072654529	18.3098460074745	1622.76404494382	0.3228285933897	n/a	n/a	n/a	n/a	1517.92508513053	1	8	0	0	1	0	0
48.5286361941993	6.02161471036077	panas_none	54.5502509045601	9	5	2	10	n/a	n/a	n/a	n/a	n/a	n/a	n/a	n/a	2000	0	BLOCKED	n/a	n/a	+	0	distressed	At this moment	2	2	8	219	NONE	n/a	0	2068.51890843031	-0.771613119329102	0.000203972239845154	12.9110727938119	1358.14232209738	0.0776325903151422	79.2272781051229	2.80156637110876	-0.00115663637186902	129.902385717581	1528.29	3	1	0	1	0	0	1
55.5510756754577	6.02152761396766	panas_none	61.5726032894254	10	5	2	10	n/a	n/a	n/a	n/a	n/a	n/a	n/a	n/a	2000	0	BLOCKED	n/a	n/a	+	0	proud	At this moment	1	2	8	219	NONE	n/a	0.433208489388265	n/a	n/a	n/a	n/a	1088.32158590308	0.229823212913144	1309.93632641318	0.103793775886723	-6.02546670218337e-05	24.7182969798407	1344.10978043912	3	2	0	1	0	0	1
62.5738543741405	6.02113973540067	panas_none	68.5949941095412	11	5	2	10	n/a	n/a	n/a	n/a	n/a	n/a	n/a	n/a	2000	0	BLOCKED	n/a	n/a	+	0	inspired	At this moment	1	2	8	219	NONE	n/a	0	1872.32455629013	-0.761708316993884	0.000163026210968353	15.1503226249143	1000.87515605493	0	1168.60939083611	-0.239046594986938	8.32828113426502e-05	17.7243698466249	1038.12836279785	2	3	0	1	0	0	1
69.5791679581106	9.62451907461882	panas_none	79.2036870327294	12	5	2	10	n/a	n/a	n/a	n/a	n/a	n/a	n/a	n/a	2000	0	BLOCKED	n/a	n/a	+	0	attentive	At this moment	3	2	8	219	NONE	n/a	0.3270911360799	n/a	n/a	n/a	n/a	1220.67717996289	0.25826287471176	n/a	n/a	n/a	n/a	1295.91502590674	7	4	0	1	0	0	1
80.2044585585296	2.5187015658617	reward_rtpj	82.7231601243913	13	1	3	10	750	250	250	250	0	0	0	0	2000	0	BLOCKED	0.75	1	6	1	guilty	At this moment	3	2	8	219	RTPJ	639.92843285203	0.374531835205993	n/a	n/a	n/a	n/a	1182.00199600798	0	755.0191205432	0.720359441156468	-0.00025468333585153	17.1430071979498	1148.83013066872	1	1	1	0	0	0	0
83.7122159538567	2.51431465908884	reward_rtpj	86.2265306129456	14	1	3	10	750	250	250	250	0	0	0	0	2000	0	BLOCKED	0.75	1	6	1	jittery	At this moment	2	2	8	219	RTPJ	518.16981959343	0	6481.62057856282	-4.98793498797306	0.00120648273646993	22.3372467250467	1381.09987515605	0.264411990776326	n/a	n/a	n/a	n/a	1158.45977011494	1	2	1	0	0	0	0
87.2311389631331	2.51441127613188	reward_rtpj	89.745550239265	15	1	3	10	750	250	250	250	0	0	0	0	2000	0	BLOCKED	0.75	-1	6	-1	alert	At this moment	1	2	8	219	RTPJ	435.671571195126	0	4075.44041705999	-2.40800296218591	0.000531777778762038	29.7567480943255	1391.33707865169	0	914.062380681618	0.56316047516784	-0.000158941710698164	16.9578344170172	1254.47348193697	0	3	1	0	0	0	0
90.7296937627792	2.51879430410266	reward_rtpj	93.2484880668819	16	1	3	10	750	250	250	250	0	0	0	0	2000	0	BLOCKED	0.75	1	10	1	upset	At this moment	3	2	8	219	RTPJ	824.548765003681	0.382022471910112	n/a	n/a	n/a	n/a	1425.55757575758	0	736.04133852902	0.656566070642211	-0.000107432012876672	24.5572657159341	1201.85318985396	1	4	1	0	0	0	0
94.2325208687484	2.51872342810034	reward_rtpj	96.7512442968488	17	1	3	10	750	250	250	250	0	0	0	0	2000	0	BLOCKED	0.75	1	6	1	afraid	At this moment	3	2	8	219	RTPJ	440.591987341642	0	3400.09872467535	-1.81987469790482	0.000431326123449142	22.4507625918894	1503.35580524345	0.395849346656418	n/a	n/a	n/a	n/a	1397.1106870229	2	5	1	0	0	0	0
97.7402556966245	2.51381746926904	reward_rtpj	100.254073165894	18	1	3	10	750	250	250	250	0	0	0	0	2000	0	BLOCKED	0.75	1	10	1	strong	At this moment	2	2	8	219	RTPJ	568.79291126132	0	5296.85942899209	-3.52471321494065	0.000828340135265444	35.624754556571	1593.05493133583	0	1044.87070157576	0.603900995019521	-0.000147762982942786	18.8112762083734	1430.02152190623	0	6	1	0	0	0	0
101.254903226048	2.51874423250555	reward_rtpj	103.773647458553	19	1	3	10	750	250	250	250	0	0	0	0	2000	0	BLOCKED	0.75	1	6	1	irritable	At this moment	5	2	8	219	RTPJ	557.473556369543	0	3025.89396448501	-0.956592530447227	8.62794288581938e-05	23.6517431007404	1400.87265917603	0	688.333524939457	0.889845624536803	-0.000233526952536718	40.3340360590523	1244.97694081476	0	7	1	0	0	0	0
104.774336471945	2.51879113057255	reward_rtpj	107.293127602518	20	1	3	10	750	250	250	250	0	0	0	0	2000	0	BLOCKED	0.75	1	2	-1	ashamed	At this moment	2	2	8	219	RTPJ	656.710528701544	0	4530.47570965458	-2.74039097564749	0.000638979031071173	31.3123646244524	1627.53183520599	0	602.265084380623	0.916880869581747	-0.000192902250235352	36.4801592007398	1216.60415065334	0	8	1	0	0	0	0
108.277280999333	6.02157345414162	panas_none	114.298854453474	21	5	4	10	n/a	n/a	n/a	n/a	n/a	n/a	n/a	n/a	2000	0	BLOCKED	n/a	n/a	+	0	scared	At this moment	1	2	8	219	NONE	n/a	0.147315855181024	425.915374926634	0.6215953610914	-0.000124962384371702	20.0773754162273	1169.4831625183	0.0845503458877786	204.950919877552	2.79002843271889	-0.00133625268231488	101.909389904356	1482.69353484467	2	1	0	1	0	1	0
115.299584370464	6.02161753123998	panas_none	121.321201901704	22	5	4	10	n/a	n/a	n/a	n/a	n/a	n/a	n/a	n/a	2000	0	BLOCKED	n/a	n/a	+	0	interested	At this moment	3	2	8	219	NONE	n/a	0	2228.40850377281	-1.06833821017194	0.000247495968689458	15.5199053350784	1090.03620474407	0.146810146041507	1298.47744686963	-0.254714143543915	8.57649253151377e-05	21.2171470876183	1119.36756756757	3	2	0	1	0	1	0
122.322031609267	6.02158579576015	panas_none	128.343617405027	23	5	4	10	n/a	n/a	n/a	n/a	n/a	n/a	n/a	n/a	2000	0	BLOCKED	n/a	n/a	+	0	hostile	At this moment	1	2	8	219	NONE	n/a	0	-803.793249436956	1.50783064931405	-0.000280308266671698	19.9214989574842	1111.15730337079	0	1104.45991078185	-0.184161666660781	6.06777286615492e-05	13.6648449037643	1000.41199077633	3	3	0	1	0	1	0
129.344452401817	11.4261452732086	panas_none	140.770597675025	24	5	4	10	n/a	n/a	n/a	n/a	n/a	n/a	n/a	n/a	2000	0	BLOCKED	n/a	n/a	+	0	active	At this moment	5	2	8	219	NONE	n/a	0	1033.11993473342	0.420978501892783	-3.81817914268542e-05	18.552485779172	1746.57802746567	0.230591852421214	1297.35270641612	0.219948363145316	3.3868955018744e-05	62.8900271055625	1514.16283716284	6	4	0	1	0	1	0
141.771075470924	2.53554290130734	punish_vlpfc	144.306618372232	25	4	5	10	0	0	0	0	250	250	250	750	2000	0	BLOCKED	0.25	-1	8	-1	alert	At this moment	5	2	8	219	VLPFC	741.383718073368	0.374531835205993	n/a	n/a	n/a	n/a	1771.36526946108	0	987.800784225463	0.660520378279266	-0.000105189221881467	30.830357288671	1459.17217524981	1	1	0	0	1	0	0
145.307368035734	2.53540996477008	punish_vlpfc	147.842778000504	26	4	5	10	0	0	0	0	250	250	250	750	2000	0	BLOCKED	0.25	1	0	-1	guilty	At this moment	5	2	8	219	VLPFC	590.108249872923	0.0574282147315855	2374.80310769521	-0.665444615335172	0.000174908295324719	25.9619932997553	1756.03046357616	0	1286.99477177467	0.44828013346673	-0.000104601840576587	23.3659278939926	1578.29823212913	1	2	0	0	1	0	0
148.843601008326	2.5186726512909	punish_vlpfc	151.362273659617	27	4	5	10	0	0	0	0	250	250	250	750	2000	0	BLOCKED	0.25	1	2	-1	afraid	At this moment	1	2	8	219	VLPFC	456.400507926941	0.378277153558052	n/a	n/a	n/a	n/a	1731.9016064257	0	1028.4466086301	0.877733438692143	-0.000281498808487634	50.4515795617552	1533.57571099155	1	3	0	0	1	0	0
152.363041659206	2.53553479111196	punish_vlpfc	154.898576450318	28	4	5	10	0	0	0	0	250	250	250	750	2000	0	BLOCKED	0.25	-1	6	-1	jittery	At this moment	5	2	8	219	VLPFC	373.145191043615	0	1862.46029340936	-0.0148065145432764	4.44610620407186e-05	30.8111912591065	2030.32084893883	0	997.626637799335	0.87955322426632	-0.000197764846880155	26.4058195436939	1576.50653343582	0	4	0	0	1	0	0
155.89934198159	2.51869310307501	punish_vlpfc	158.418035084665	29	4	5	10	0	0	0	0	250	250	250	750	2000	0	BLOCKED	0.25	-1	0	1	inspired	At this moment	3	2	8	219	VLPFC	623.429841071367	0.394506866416979	n/a	n/a	n/a	n/a	1677.71546391753	0	1165.26112970788	0.784123286325656	-0.000181106585192314	23.441117453649	1675.4189085319	1	5	0	0	1	0	0
159.418833409309	2.51871143913269	punish_vlpfc	161.937544848442	30	4	5	10	0	0	0	0	250	250	250	750	2000	0	BLOCKED	0.25	-1	8	-1	guilty	At this moment	4	2	8	219	VLPFC	606.474257737398	0	2763.25537862007	-0.933406556623974	0.000262111655439274	25.9692541832678	1973.13607990012	0	1123.5294296717	0.673395501245874	-0.00012623606422188	25.2972334928987	1587.08224442736	0	6	0	0	1	0	0
162.938289222717	2.51887082198263	punish_vlpfc	165.4571600447	31	4	5	10	0	0	0	0	250	250	250	750	2000	0	BLOCKED	0.25	-1	10	-1	proud	At this moment	2	2	8	219	VLPFC	573.240115523338	0.374531835205993	n/a	n/a	n/a	n/a	1772.19760479042	0	1244.66391792217	1.1083026486047	-0.000458793278893309	49.7623606971241	1795.80860876249	1	7	0	0	1	0	0
166.441199546248	2.51884931233525	punish_vlpfc	168.960048858583	32	4	5	10	0	0	0	0	250	250	250	750	2000	0	BLOCKED	0.25	-1	4	1	enthusiastic	At this moment	4	2	8	219	VLPFC	1323.72840175033	0	5136.61148100857	-2.82790747155762	0.000582667706274347	29.882953872292	1797.04119850187	0.235203689469639	1202.10966520957	0.634613451437246	-9.69581214203297e-05	51.64535208075	1657.51055276382	2	8	0	0	1	0	0
169.96073963508	6.02161400508879	panas_none	175.982353640169	33	5	6	10	n/a	n/a	n/a	n/a	n/a	n/a	n/a	n/a	2000	0	BLOCKED	n/a	n/a	+	0	interested	At this moment	3	2	8	219	NONE	n/a	0	2338.04164682489	-0.963672353383979	0.00023023156476224	12.6583015002226	1352.31960049938	0.598770176787087	n/a	n/a	n/a	n/a	1489.93486590038	5	1	0	1	0	0	1
176.983545485258	6.02112280976772	panas_none	183.004668295026	34	5	6	10	n/a	n/a	n/a	n/a	n/a	n/a	n/a	n/a	2000	0	BLOCKED	n/a	n/a	+	0	active	At this moment	2	2	8	219	NONE	n/a	0	2136.89481196109	-0.741896809212518	0.000161126678195009	13.8973680728486	1298.4631710362	0.0169100691775557	1672.75263360911	-0.820520617976821	0.000384833030489151	20.1859165806518	1276.76856919468	3	2	0	1	0	0	1
183.988802650541	6.0216947543621	panas_none	190.010497404903	35	5	6	10	n/a	n/a	n/a	n/a	n/a	n/a	n/a	n/a	2000	0	BLOCKED	n/a	n/a	+	0	inspired	At this moment	1	2	8	219	NONE	n/a	0	3710.05923192667	-1.76503066362697	0.000349530364181768	20.4297982311993	1563.3720349563	0.229823212913144	2431.6189246728	0.124281456424251	-0.000325772287376204	37.5483741996148	2213.71457085828	4	3	0	1	0	0	1
191.01131230256	8.97414260318874	panas_none	199.985454905748	36	5	6	10	n/a	n/a	n/a	n/a	n/a	n/a	n/a	n/a	2000	0	BLOCKED	n/a	n/a	+	0	jittery	At this moment	1	2	8	219	NONE	n/a	0	-1869.41563130546	4.3955435324509	-0.00110890183685912	32.1568071557421	2413.55805243446	0.524980784012298	n/a	n/a	n/a	n/a	2057.58414239482	4	4	0	1	0	0	1
200.985961616248	2.51873647490143	reward_rtpj	203.504698091149	37	1	7	10	750	250	250	250	0	0	0	0	2000	0	BLOCKED	0.75	1	6	1	distressed	At this moment	1	2	8	219	RTPJ	656.425966829062	0	5332.89771263249	-3.1379003124971	0.000695127739639012	38.832109121911	1845.94881398252	0	826.917631755823	1.10823694426251	-0.000269031408454937	31.1050309077602	1537.10069177556	0	1	1	0	0	0	0
204.488813052744	2.51870861819387	reward_rtpj	207.007521670938	38	1	7	10	750	250	250	250	0	0	0	0	2000	0	BLOCKED	0.75	1	9	1	nervous	At this moment	1	2	8	219	RTPJ	756.465495169163	0.384519350811486	n/a	n/a	n/a	n/a	1592.58823529412	0	1125.96059237326	0.509696652654316	-0.000198595711300991	35.6755363658614	1389.76095311299	1	2	1	0	0	0	0
207.991827398241	2.51851115274431	reward_rtpj	210.510338550985	39	1	7	10	750	250	250	250	0	0	0	0	2000	0	BLOCKED	0.75	1	3	-1	active	At this moment	4	2	8	219	RTPJ	990.21876001358	0.374531835205993	n/a	n/a	n/a	n/a	1803.01996007984	0	1078.13702178127	0.845141451088646	-0.000288853636991547	24.8478163615194	1547.13989239047	1	3	1	0	0	0	0
211.511586109549	2.51831262943151	reward_rtpj	214.02989873898	40	1	7	10	750	250	250	250	0	0	0	0	2000	0	BLOCKED	0.75	1	7	1	interested	At this moment	3	2	8	219	RTPJ	840.823092460632	0	6481.20055532593	-4.04706215434974	0.000878517127515067	24.9924777939472	1900.9038701623	0	1405.57261815577	0.790691924658455	-0.000228427133757651	29.8603133899598	1885.40814757879	0	4	1	0	0	0	0
215.015733060539	2.51720364931225	reward_rtpj	217.532936709851	41	1	7	10	750	250	250	250	0	0	0	0	2000	0	BLOCKED	0.75	-1	0	1	jittery	At this moment	4	2	8	219	RTPJ	754.885418891907	0	7066.96492679604	-4.98559247457239	0.00113932779763324	29.2225435066172	1683.17103620474	0	946.466584337826	0.999550274351693	-0.000297407783550047	24.8951892112069	1541.26979246733	0	5	1	0	0	0	0
218.516799197704	2.51869098737836	reward_rtpj	221.035490185082	42	1	7	10	750	250	250	250	0	0	0	0	2000	0	BLOCKED	0.75	1	10	1	guilty	At this moment	1	2	8	219	RTPJ	574.394935876131	0	5745.04027751493	-3.63310399395578	0.000765530320781954	22.5703503286986	1523.04619225968	0	790.386840387338	1.0554788897256	-0.000373554241161741	28.3087106841271	1365.30361260569	0	6	1	0	0	0	0
222.036472928375	2.53534120443462	reward_rtpj	224.57181413281	43	1	7	10	750	250	250	250	0	0	0	0	2000	0	BLOCKED	0.75	-1	7	-1	alert	At this moment	1	2	8	219	RTPJ	856.893254756927	0.374531835205993	n/a	n/a	n/a	n/a	1615.12774451098	0	853.309917083271	0.990175804908243	-0.000348152888416178	21.1384627718516	1395.42582628747	1	7	1	0	0	0	0
225.57263643539	2.51869169259072	reward_rtpj	228.09132812798	44	1	7	10	750	250	250	250	0	0	0	0	2000	0	BLOCKED	0.75	-1	2	1	enthusiastic	At this moment	4	2	8	219	RTPJ	741.396059662104	0	3811.49111840726	-1.92846039508409	0.000397486942582208	18.0132222748626	1535.8177278402	0	1164.04544347477	0.779629310951263	-0.000304370684897926	28.4950653699644	1565.47271329746	0	8	1	0	0	0	0
229.092156425059	6.02150293079018	panas_none	235.113659355849	45	5	8	10	n/a	n/a	n/a	n/a	n/a	n/a	n/a	n/a	2000	0	BLOCKED	n/a	n/a	+	0	afraid	At this moment	1	2	8	219	NONE	n/a	0	803.226656662586	0.406994683818232	-0.000104448249638068	13.5574522046863	1192.05118601748	0	964.181365388181	0.757635983554992	-0.000296887061403865	69.9462719319096	1352.27824750192	2	1	0	1	0	1	0
236.097830030888	6.02158509048817	panas_none	242.119415121377	46	5	8	10	n/a	n/a	n/a	n/a	n/a	n/a	n/a	n/a	2000	0	BLOCKED	n/a	n/a	+	0	determined	At this moment	1	2	8	219	NONE	n/a	0.352059925093633	n/a	n/a	n/a	n/a	1268.30828516378	0	1227.00764538648	0.325161932989751	-0.000205196523218952	38.7336832064543	1318.7909300538	4	2	0	1	0	1	0
243.120255407482	6.03827973729372	panas_none	249.158535144776	47	5	8	10	n/a	n/a	n/a	n/a	n/a	n/a	n/a	n/a	2000	0	BLOCKED	n/a	n/a	+	0	alert	At this moment	3	2	8	219	NONE	n/a	0.373283395755306	n/a	n/a	n/a	n/a	1282.23306772908	0	1788.02560453509	-0.385314966491255	0.000108385684258343	20.3150184592876	1554.05534204458	3	3	0	1	0	1	0
250.159264356494	13.3108712846338	panas_none	263.470135641128	48	5	8	10	n/a	n/a	n/a	n/a	n/a	n/a	n/a	n/a	2000	0	BLOCKED	n/a	n/a	+	0	inspired	At this moment	2	2	8	219	NONE	n/a	1	n/a	n/a	n/a	n/a	n/a	1	n/a	n/a	n/a	n/a	n/a	7	4	0	1	0	1	0
264.454124365836	2.53538034492732	reward_vlpfc	266.989504710764	49	2	9	10	0	0	0	0	250	250	250	750	2000	0	BLOCKED	0.75	1	6	1	distressed	At this moment	5	2	8	219	VLPFC	820.551852494478	0	3664.22690762817	-1.98219307214139	0.000437265832276222	32.042322649316	1455.19350811486	0	797.304919173674	0.344411692481196	0.000118158384852933	33.2301022863305	1191.14988470407	0	1	1	0	0	0	0
267.990642252862	2.51856933453678	reward_vlpfc	270.509211587399	50	2	9	10	0	0	0	0	250	250	250	750	2000	0	BLOCKED	0.75	-1	6	-1	irritable	At this moment	3	2	8	219	VLPFC	789.826579481363	0.374531835205993	n/a	n/a	n/a	n/a	1596.06187624751	0	627.958636478697	1.04155604287097	-0.000264699460840596	21.9437213205942	1288.19215987702	1	2	1	0	0	0	0
271.509953140706	2.51873859065773	reward_vlpfc	274.028691731364	51	2	9	10	0	0	0	0	250	250	250	750	2000	0	BLOCKED	0.75	-1	3	1	strong	At this moment	5	2	8	219	VLPFC	1056.63979375362	0.403245942571785	n/a	n/a	n/a	n/a	1479.96443514644	0	1116.14257388481	0.704971568754757	-0.000160625074912731	27.2892202898567	1578.06994619523	1	3	1	0	0	0	0
275.03409981665	2.51430584368109	reward_vlpfc	277.548405660331	52	2	9	10	0	0	0	0	250	250	250	750	2000	0	BLOCKED	0.75	1	6	1	alert	At this moment	5	2	8	219	VLPFC	618.616973102093	0	4228.95401802152	-2.23374203486346	0.000456252649093527	30.671780658927	1575.32209737828	0	826.169074689413	0.955691953482809	-0.000291010359924397	25.2751589597449	1387.93774019985	0	4	1	0	0	0	0
278.532258274943	2.5522170963585	reward_vlpfc	281.084475371301	53	2	9	10	0	0	0	0	250	250	250	750	2000	0	BLOCKED	0.75	1	10	1	inspired	At this moment	1	2	8	219	VLPFC	423.280966192484	0.387016229712859	n/a	n/a	n/a	n/a	1361.39307535642	0	697.801416508075	0.790746320622919	-0.000220677539419331	41.5871119527398	1180.07378939277	1	5	1	0	0	0	0
282.085272285461	2.51864585241674	reward_vlpfc	284.603918137878	54	2	9	10	0	0	0	0	250	250	250	750	2000	0	BLOCKED	0.75	-1	4	1	excited	At this moment	4	2	8	219	VLPFC	372.868034183979	0.374531835205993	n/a	n/a	n/a	n/a	1288.90219560878	0.265949269792467	n/a	n/a	n/a	n/a	1155.66282722513	2	6	1	0	0	0	0
285.604803558886	2.53530382704736	reward_vlpfc	288.140107385933	55	2	9	10	0	0	0	0	250	250	250	750	2000	0	BLOCKED	0.75	-1	2	1	ashamed	At this moment	1	2	8	219	VLPFC	624.523306012154	0	2630.64474098912	-1.19507369610751	0.000277059182745548	27.7855570892288	1357.59300873908	0.276710222905457	n/a	n/a	n/a	n/a	1109.92348565356	1	7	1	0	0	0	0
289.124218468726	2.51879677242039	reward_vlpfc	291.643015241146	56	2	9	10	0	0	0	0	250	250	250	750	2000	0	BLOCKED	0.75	1	0	-1	interested	At this moment	1	2	8	219	VLPFC	590.160437166691	0	1816.41196057728	-0.37930909191547	0.000136378367453652	23.3605962616358	1628.49313358302	0	979.951519013324	0.5573394643327	-0.000162995053926853	33.5586420925735	1313.01076095311	0	8	1	0	0	0	0
292.643942976207	6.02140772420171	panas_none	298.665350700408	57	5	10	10	n/a	n/a	n/a	n/a	n/a	n/a	n/a	n/a	2000	0	BLOCKED	n/a	n/a	+	0	afraid	At this moment	2	2	8	219	NONE	n/a	0.220973782771536	4845.0801834939	-3.55205831879248	0.000876149655287752	12.3498135726141	1273.45993589744	0.305149884704074	n/a	n/a	n/a	n/a	1676.70022123894	5	1	0	1	0	1	1
299.666082733065	6.02163833567499	panas_none	305.68772106874	58	5	10	10	n/a	n/a	n/a	n/a	n/a	n/a	n/a	n/a	2000	0	BLOCKED	n/a	n/a	+	0	irritable	At this moment	2	2	8	219	NONE	n/a	0	2023.6362225047	-0.733467546468129	0.000158665970773282	22.0314581811354	1191.20349563046	0.237509607993851	1046.23630732962	0.582494385337352	-0.000325326911393217	28.354658883559	1263.43447580645	2	2	0	1	0	1	1
306.688541608244	6.02146766909959	panas_none	312.710009277344	59	5	10	10	n/a	n/a	n/a	n/a	n/a	n/a	n/a	n/a	2000	0	BLOCKED	n/a	n/a	+	0	scared	At this moment	2	2	8	219	NONE	n/a	0	1383.91002609611	-0.381668769070785	0.000110936838757524	14.447477856742	1077.72534332085	0.229823212913144	1075.1439170444	0.311417731579442	-0.000229455275360331	21.1593507030872	1105.98203592814	2	3	0	1	0	1	1
313.711021993041	5.07069757145644	panas_none	318.781719564497	60	5	10	10	n/a	n/a	n/a	n/a	n/a	n/a	n/a	n/a	2000	0	BLOCKED	n/a	n/a	+	0	guilty	At this moment	4	2	8	219	NONE	n/a	0	4525.73043004992	-2.84087697276789	0.000671507053203853	27.8675499866882	1558.23220973783	0.341275941583397	n/a	n/a	n/a	n/a	1531.1178529755	2	4	0	1	0	1	1
319.765842283607	2.51874035373334	punish_rtpj	322.28458263734	61	3	11	10	750	250	250	250	0	0	0	0	2000	0	BLOCKED	0.25	1	0	-1	jittery	At this moment	5	2	8	219	RTPJ	740.998307794333	0.374531835205993	n/a	n/a	n/a	n/a	1708.73852295409	0	1097.39514912381	0.53122550016297	-6.96934895443021e-05	17.6243433206083	1489.05303612606	2	1	0	0	1	0	0
323.285286813289	2.51907569238546	punish_rtpj	325.804362505674	62	3	11	10	750	250	250	250	0	0	0	0	2000	0	BLOCKED	0.25	-1	3	1	distressed	At this moment	1	2	8	219	RTPJ	906.99905744195	0.374531835205993	n/a	n/a	n/a	n/a	1618.79041916168	0	974.535581955741	0.745834065942179	-0.000194377888319997	28.3420301671857	1441.36356648732	1	2	0	0	1	0	0
326.78829939571	2.53558768364786	punish_rtpj	329.323887079358	63	3	11	10	750	250	250	250	0	0	0	0	2000	0	BLOCKED	0.25	-1	8	-1	inspired	At this moment	1	2	8	219	RTPJ	556.126559853554	0	463.195885843916	1.15744127517399	-0.000236655590398842	20.3571234232767	1838.34706616729	0.246733282090699	1021.10890668413	0.468473811159536	2.7056389442494e-05	32.9445808698198	1444.77857142857	1	3	0	0	1	0	0
330.324472423404	2.51866771465541	punish_rtpj	332.84314013806	64	3	11	10	750	250	250	250	0	0	0	0	2000	0	BLOCKED	0.25	-1	4	1	nervous	At this moment	3	2	8	219	RTPJ	673.474993646145	0	5248.93272360954	-3.40185685228875	0.000760249475647566	21.1357790472867	1497.76279650437	0	1510.74807577394	-0.0749823634792536	0.000138882081762285	29.0535602074279	1566.28516525749	0	4	0	0	1	0	0
333.843865470976	2.51872095981241	punish_rtpj	336.362586430788	65	3	11	10	750	250	250	250	0	0	0	0	2000	0	BLOCKED	0.25	1	3	-1	guilty	At this moment	3	2	8	219	RTPJ	574.430550187826	0	4124.98619323913	-2.30020301125908	0.000526702898845715	22.425131295548	1646.0049937578	0	901.454565363832	0.999767798954435	-0.00027480048310392	23.0449516588767	1514.71867794005	0	5	0	0	1	0	0
337.363644986689	2.51854641446471	punish_rtpj	339.882191401154	66	3	11	10	750	250	250	250	0	0	0	0	2000	0	BLOCKED	0.25	1	4	-1	excited	At this moment	1	2	8	219	RTPJ	590.717219263315	0	711.009684292396	0.717080292391781	-0.000171268656915434	20.3364792615138	1452.71785268414	0	721.243557664667	1.08197727744752	-0.000426948859865409	27.6035428148825	1273.32205995388	0	6	0	0	1	0	0
340.88300947234	2.53537364518644	punish_rtpj	343.418383117527	67	3	11	10	750	250	250	250	0	0	0	0	2000	0	BLOCKED	0.25	-1	10	-1	irritable	At this moment	5	2	8	219	RTPJ	406.17269974947	0.383270911360799	n/a	n/a	n/a	n/a	1513.01821862348	0.230591852421214	832.685576349682	0.916150080464918	-0.000398009932455575	51.6750752244828	1298.15684315684	2	7	0	0	1	0	0
344.419137717694	2.51911765381692	punish_rtpj	346.938255371511	68	3	11	10	750	250	250	250	0	0	0	0	2000	0	BLOCKED	0.25	-1	8	-1	distressed	At this moment	3	2	8	219	RTPJ	139.869722157717	0	-2341.6866589553	3.42415061262675	-0.000772718280580883	24.115038817166	1399.88139825218	0.0299769408147579	890.929916002087	0.465571706089729	-0.00015221746157609	21.656711345712	1161.05942947702	1	8	0	0	1	0	0
347.938689795494	6.02165808221696	panas_none	353.960347877711	69	5	12	10	n/a	n/a	n/a	n/a	n/a	n/a	n/a	n/a	2000	0	BLOCKED	n/a	n/a	+	0	scared	At this moment	2	2	8	219	NONE	n/a	0	2584.30547348061	-1.5600177730804	0.000404573131185698	8.86651388690124	1114.08988764045	0.286702536510377	n/a	n/a	n/a	n/a	1338.29956896552	3	1	0	1	0	0	0
354.9612368249	6.02145991149547	panas_none	360.982696736395	70	5	12	10	n/a	n/a	n/a	n/a	n/a	n/a	n/a	n/a	2000	0	BLOCKED	n/a	n/a	+	0	inspired	At this moment	2	2	8	219	NONE	n/a	0	1137.20782874384	0.0937648687768055	-2.01400365567817e-05	17.8244613588282	1244.40699126092	0	1104.86141425095	0.125078936235693	-2.24213365669387e-05	30.7521387921365	1192.41352805534	3	2	0	1	0	0	0
361.983571226299	6.02147190049288	panas_none	368.005043126792	71	5	12	10	n/a	n/a	n/a	n/a	n/a	n/a	n/a	n/a	2000	0	BLOCKED	n/a	n/a	+	0	excited	At this moment	1	2	8	219	NONE	n/a	0.348314606741573	n/a	n/a	n/a	n/a	1102.34291187739	0	1199.61946982338	0.0602606264481919	-9.90322696088691e-05	30.5848447020273	1165.29131437356	2	3	0	1	0	0	0
369.005799137413	7.52285362979774	panas_none	376.528652767211	72	5	12	10	n/a	n/a	n/a	n/a	n/a	n/a	n/a	n/a	2000	0	BLOCKED	n/a	n/a	+	0	proud	At this moment	1	2	8	219	NONE	n/a	0.243445692883895	4303.76785122245	-2.92464550093517	0.000721508081675959	10.4580111864285	1363.15511551155	0.760953112990008	n/a	n/a	n/a	n/a	1226.40514469453	5	4	0	1	0	0	0
377.51277548632	2.51876574218272	reward_vlpfc	380.031541228503	73	2	13	10	0	0	0	0	250	250	250	750	2000	0	BLOCKED	0.75	-1	3	1	strong	At this moment	4	2	8	219	VLPFC	873.853422105312	0	5611.17368373867	-3.4534843321934	0.000742097549079448	42.3892834258459	1670.59550561798	0.0184473481936972	780.098387557597	1.22615138870773	-0.000401287903534032	21.3509675611721	1487.81675802662	2	1	1	0	0	0	0
381.032248577982	2.51877103137974	reward_vlpfc	383.551019609362	74	2	13	10	0	0	0	0	250	250	250	750	2000	0	BLOCKED	0.75	1	3	-1	ashamed	At this moment	2	2	8	219	VLPFC	274.502025604248	0	2517.13022398836	-0.797525792090461	0.000167789608464115	25.1539460671932	1592.04494382022	0	1036.20510479284	0.433896694093362	-7.02357016198403e-05	38.4809717153559	1345.82628747118	0	2	1	0	0	0	0
384.535157843649	2.51877032613754	reward_vlpfc	387.053928169787	75	2	13	10	0	0	0	0	250	250	250	750	2000	0	BLOCKED	0.75	1	8	1	scared	At this moment	5	2	8	219	VLPFC	289.584155380726	0	3967.26479510841	-2.2032333173589	0.000471157807417856	25.4451048588923	1443.22471910112	0.302843966179862	n/a	n/a	n/a	n/a	1392.34399117971	1	3	1	0	0	0	0
388.054656323671	2.51891348865627	reward_vlpfc	390.573569812328	76	2	13	10	0	0	0	0	250	250	250	750	2000	0	BLOCKED	0.75	1	7	1	upset	At this moment	3	2	8	219	VLPFC	590.802199929953	0	3816.31860999616	-2.15672043179112	0.000475595072219011	19.8035077582572	1410.12609238452	0.26902382782475	n/a	n/a	n/a	n/a	1376.78443743428	1	4	1	0	0	0	0
391.557428774029	2.51923049122098	reward_vlpfc	394.07665926525	77	2	13	10	0	0	0	0	250	250	250	750	2000	0	BLOCKED	0.75	1	2	-1	inspired	At this moment	5	2	8	219	VLPFC	840.530420422554	0	4203.56252820671	-2.53114291231272	0.000585881984867007	26.712312699473	1503.13982521848	0	1016.59049378292	0.378643834002944	-1.78095747617966e-05	25.9253931599763	1323.09300538048	0	5	1	0	0	0	0
395.06494850558	2.51412953522799	reward_vlpfc	397.579078040808	78	2	13	10	0	0	0	0	250	250	250	750	2000	0	BLOCKED	0.75	1	6	1	determined	At this moment	4	2	8	219	VLPFC	735.378652364016	0.435705368289638	n/a	n/a	n/a	n/a	1466.40044247788	0.249039200614912	916.454603586107	0.759751547954413	-0.000237578845124714	30.7619587614586	1367.24564994882	2	6	1	0	0	0	0
398.580024817169	2.51859965959193	reward_vlpfc	401.098624476761	79	2	13	10	0	0	0	0	250	250	250	750	2000	0	BLOCKED	0.75	-1	0	1	proud	At this moment	5	2	8	219	VLPFC	424.114199906588	0.387016229712859	n/a	n/a	n/a	n/a	1509.63951120163	0.253651037663336	n/a	n/a	n/a	n/a	1390.22142121524	2	7	1	0	0	0	0
402.102010304153	2.51607562786342	reward_vlpfc	404.618085932016	80	2	13	10	0	0	0	0	250	250	250	750	2000	0	BLOCKED	0.75	-1	4	1	irritable	At this moment	3	2	8	219	VLPFC	237.180348396301	0	3688.07961114086	-1.80573333860651	0.000367030987080438	26.8915059460387	1532.734082397	0.303612605687932	n/a	n/a	n/a	n/a	1457.69426048565	1	8	1	0	0	0	0
405.619439628273	6.02121237447858	panas_none	411.640652002752	81	5	14	10	n/a	n/a	n/a	n/a	n/a	n/a	n/a	n/a	2000	0	BLOCKED	n/a	n/a	+	0	scared	At this moment	2	2	8	219	NONE	n/a	0	1459.51076414635	-0.29690903717856	6.80427995365547e-05	17.340116714613	1140.06491885144	0.110684089162183	444.600135087976	1.81038564600571	-0.000869814995176985	29.8311118182954	1281.37078651685	2	1	0	1	0	1	1
412.624549047053	6.02178608214854	panas_none	418.646335129201	82	5	14	10	n/a	n/a	n/a	n/a	n/a	n/a	n/a	n/a	2000	0	BLOCKED	n/a	n/a	+	0	ashamed	At this moment	1	2	8	219	NONE	n/a	0.367041198501873	n/a	n/a	n/a	n/a	1077.05128205128	0	1276.56859578084	-0.676123393325662	0.000344207721183468	20.0435439439852	996.966948501153	8	2	0	1	0	1	1
419.647017795503	6.02157803818585	panas_none	425.668595833689	83	5	14	10	n/a	n/a	n/a	n/a	n/a	n/a	n/a	n/a	2000	0	BLOCKED	n/a	n/a	+	0	excited	At this moment	1	2	8	219	NONE	n/a	0	1071.10148858138	-0.0952599375314961	1.38099648057546e-05	17.287732529346	932.907615480649	0	1010.09140932667	0.178641004471437	-0.000176010355744447	22.2535905607909	1011.0099923136	3	3	0	1	0	1	1
426.675074463844	8.68469632107019	panas_none	435.359770784914	84	5	14	10	n/a	n/a	n/a	n/a	n/a	n/a	n/a	n/a	2000	0	BLOCKED	n/a	n/a	+	0	inspired	At this moment	1	2	8	219	NONE	n/a	0	-1089.61168554775	2.26930373078905	-0.000524788679864469	18.1550466045465	1333.87765293383	0.230591852421214	883.989073702747	0.852856842113069	-0.000332479699379811	59.1712673535377	1312.23476523477	3	4	0	1	0	1	1
436.343970021903	2.51851996818186	punish_rtpj	438.862489990085	85	3	15	10	750	250	250	250	0	0	0	0	2000	0	BLOCKED	0.25	1	10	1	enthusiastic	At this moment	5	2	8	219	RTPJ	806.718339145184	0.374531835205993	n/a	n/a	n/a	n/a	1527.23952095808	0	768.083616865499	0.95194596694925	-0.00028780512926984	37.0265320878114	1329.86471944658	1	1	0	0	1	0	0
439.863777041733	2.51843005084993	punish_rtpj	442.382207092583	86	3	15	10	750	250	250	250	0	0	0	0	2000	0	BLOCKED	0.25	1	4	-1	guilty	At this moment	2	2	8	219	RTPJ	489.753129392862	0	3605.55891494552	-1.65467365742568	0.000341853409677681	33.1776258437085	1656.53558052434	0	995.824315672454	0.747040687898743	-0.000184116786857371	26.6404757334528	1473.54419677171	0	2	0	0	1	0	0
443.382986023337	2.5187935988605	punish_rtpj	445.901779622197	87	3	15	10	750	250	250	250	0	0	0	0	2000	0	BLOCKED	0.25	-1	2	1	afraid	At this moment	3	2	8	219	RTPJ	789.946821838617	0.398252184769039	n/a	n/a	n/a	n/a	1380.22614107884	0.239815526518063	882.343692053693	0.810575038547704	-0.000263713895865391	25.6098618411491	1352.49646107179	2	3	0	0	1	0	0
446.904355841219	2.51676605173947	punish_rtpj	449.421121892959	88	3	15	10	750	250	250	250	0	0	0	0	2000	0	BLOCKED	0.25	1	2	-1	active	At this moment	1	2	8	219	RTPJ	237.665901839733	0	5686.4500947295	-3.95403386312034	0.00087166591646255	19.5495580064477	1272.17353308365	0	781.406884558662	1.00459779706842	-0.000421823959016561	41.384833127009	1271.53497309762	0	4	0	0	1	0	0
450.42195089525	2.51882603964208	punish_rtpj	452.940776934892	89	3	15	10	750	250	250	250	0	0	0	0	2000	0	BLOCKED	0.25	1	3	-1	distressed	At this moment	4	2	8	219	RTPJ	341.275676250458	0.670411985018727	n/a	n/a	n/a	n/a	1390.92424242424	0	736.683125536633	0.99562515764189	-0.000366230350418814	27.6461950566151	1267.809377402	2	5	0	0	1	0	0
453.941683160305	2.51858308658001	punish_rtpj	456.460266246885	90	3	15	10	750	250	250	250	0	0	0	0	2000	0	BLOCKED	0.25	1	1	-1	irritable	At this moment	5	2	8	219	RTPJ	1074.10667154193	0	2700.212295434	-1.36266535085863	0.000308928354414248	13.5920968490757	1217.55805243446	0	678.008534404129	0.959446386482265	-0.000346420602965496	26.950348064793	1197.42966948501	0	6	0	0	1	0	0
457.461143205106	2.51860776978731	punish_rtpj	459.979750974894	91	3	15	10	750	250	250	250	0	0	0	0	2000	0	BLOCKED	0.25	1	4	-1	proud	At this moment	2	2	8	219	RTPJ	590.657626986504	0.398252184769039	n/a	n/a	n/a	n/a	1364.74481327801	0.230591852421214	363.619682968308	1.62660561671075	-0.000692592376247034	31.2713339912044	1223.6973026973	3	7	0	0	1	0	0
460.982344119519	2.51696457505227	punish_rtpj	463.499308694571	92	3	15	10	750	250	250	250	0	0	0	0	2000	0	BLOCKED	0.25	-1	8	-1	ashamed	At this moment	4	2	8	219	RTPJ	371.834514081478	0	2658.3926410481	-0.907973745917614	0.000148452911995403	25.4787037416778	1375.0986267166	0	831.106486529668	1.00429447464189	-0.00032593109861649	35.42108911325	1403.20522674865	0	8	0	0	1	0	0
464.500153212011	6.03848425516486	panas_none	470.538637467176	93	5	16	10	n/a	n/a	n/a	n/a	n/a	n/a	n/a	n/a	2000	0	BLOCKED	n/a	n/a	+	0	hostile	At this moment	1	2	8	219	NONE	n/a	0	-221.325291365302	1.37023392882938	-0.000361922987843373	27.0216328628089	1029.41198501873	0.335895465026902	n/a	n/a	n/a	n/a	1333.86689814815	4	1	0	1	0	0	0
471.539107152849	6.02167641830442	panas_none	477.560783571154	94	5	16	10	n/a	n/a	n/a	n/a	n/a	n/a	n/a	n/a	2000	0	BLOCKED	n/a	n/a	+	0	interested	At this moment	3	2	8	219	NONE	n/a	0	646.4343835517	0.473975864944003	-0.000110082294138026	14.4777590272457	1149.99001248439	0.0607225211375865	1239.53977370764	-0.30366280952734	0.000140798509935875	26.8076992914536	1080.12847790507	3	2	0	1	0	0	0
478.544916868806	6.02139044597743	panas_none	484.566307314783	95	5	16	10	n/a	n/a	n/a	n/a	n/a	n/a	n/a	n/a	2000	0	BLOCKED	n/a	n/a	+	0	distressed	At this moment	2	2	8	219	NONE	n/a	0	1823.42828259337	-0.615079633935227	0.000120401489669907	24.9065523013979	1069.20224719101	0	1112.53203669663	0.0608849208862593	-2.25011628820084e-05	16.9014196849231	1144.96925441968	2	3	0	1	0	0	0
485.567628217667	7.5891734624505	panas_none	493.156801680118	96	5	16	10	n/a	n/a	n/a	n/a	n/a	n/a	n/a	n/a	2000	0	BLOCKED	n/a	n/a	+	0	determined	At this moment	3	2	8	219	NONE	n/a	0	1848.88591411147	-0.519157300048577	0.000115156201514748	12.8974208967235	1272.52434456929	0.535741737125288	n/a	n/a	n/a	n/a	1133.22350993377	4	4	0	1	0	0	0
