onset	duration	trial_type	offset	trial	block	blockCntr	frequency	amplitude_1	amplitude_2	amplitude_3	amplitude_4	amplitude_5	amplitude_6	amplitude_7	amplitude_8	transition	sham	mode	rewardFraction	guess	outcome	correct	word	when	answer	runNr	scanNr	subjectNr	target	reactionTime	outcomeEyeClosed	outcomeParms_1	outcomeParms_2	outcomeParms_3	outcomeSigma	outcomePupilArea	guessEyeClosed	guessParms_1	guessParms_2	guessParms_3	guessSigma	guessPupilArea	nrBlinks	trialInBlock	isReward	isPanas	isPunish	beforePanasReward	beforePanasVLPFC
20.258837190181	2.51457135391236	reward_vlpfc	22.7734085440934	1	2	1	10	0	0	0	0	250	250	250	750	2000	0	BLOCKED	0.75	1	8	1	strong	At this moment	1	3	12	214	VLPFC	853.450759381056	0.49812734082397	n/a	n/a	n/a	n/a	3022.26865671642	0.319754035357417	n/a	n/a	n/a	n/a	3454.69378531073	3	1	1	0	0	0	0
23.7743821186423	2.53528052946925	reward_vlpfc	26.3096626481116	2	2	1	10	0	0	0	0	250	250	250	750	2000	0	BLOCKED	0.75	1	0	-1	scared	At this moment	4	3	12	214	VLPFC	389.992245972157	0.420724094881398	n/a	n/a	n/a	n/a	2692.01939655172	0.328977709454266	n/a	n/a	n/a	n/a	2739.83963344788	2	2	1	0	0	0	0
27.3105145699084	2.51875091904402	reward_vlpfc	29.8292654889524	3	2	1	10	0	0	0	0	250	250	250	750	2000	0	BLOCKED	0.75	-1	3	1	enthusiastic	At this moment	2	3	12	214	VLPFC	274.519815504551	0.374531835205993	n/a	n/a	n/a	n/a	2866.14570858283	0.230591852421214	1600.96121002418	1.04520139385368	4.15243090631412e-05	53.3314294917559	2574.40959040959	2	3	1	0	0	0	0
30.8132129687965	2.51875973442197	reward_vlpfc	33.3319727032185	4	2	1	10	0	0	0	0	250	250	250	750	2000	0	BLOCKED	0.75	-1	3	1	determined	At this moment	3	3	12	214	VLPFC	308.284974902868	0.374531835205993	n/a	n/a	n/a	n/a	2532.05189620758	0.361260568793236	n/a	n/a	n/a	n/a	2683.97833935018	3	4	1	0	0	0	0
34.3327414074838	2.51882673159242	reward_vlpfc	36.8515681390762	5	2	1	10	0	0	0	0	250	250	250	750	2000	0	BLOCKED	0.75	-1	1	1	excited	At this moment	4	3	12	214	VLPFC	373.835351318121	0.50561797752809	n/a	n/a	n/a	n/a	2453.62878787879	0.230591852421214	1862.41344411636	1.56591898335473	-0.000496356569786208	44.8783779809904	2776.5974025974	2	5	1	0	0	0	0
37.8356891063452	2.51869414770603	reward_vlpfc	40.3543832540512	6	2	1	10	0	0	0	0	250	250	250	750	2000	0	BLOCKED	0.75	-1	6	-1	distressed	At this moment	1	3	12	214	VLPFC	506.599044173956	0.403245942571785	n/a	n/a	n/a	n/a	2275.97907949791	0.335895465026902	n/a	n/a	n/a	n/a	2439.09837962963	3	6	1	0	0	0	0
41.3384749541581	2.51878759112954	reward_vlpfc	43.8572625452876	7	2	1	10	0	0	0	0	250	250	250	750	2000	0	BLOCKED	0.75	1	8	1	nervous	At this moment	1	3	12	214	VLPFC	289.715829759836	0.530586766541823	n/a	n/a	n/a	n/a	2274.77393617021	0.237509607993851	320.763152705916	3.32809348699651	-0.00115199649585784	19.5926517720454	2384.20665322581	2	7	1	0	0	0	0
44.8412706752121	2.51881615310907	reward_vlpfc	47.3600868283212	8	2	1	10	0	0	0	0	250	250	250	750	2000	0	BLOCKED	0.75	1	6	1	ashamed	At this moment	4	3	12	214	VLPFC	423.622353225946	0.374531835205993	n/a	n/a	n/a	n/a	2833.77245508982	0.230591852421214	1795.92792258715	1.18908126316792	-0.000154437389578468	42.3552861840901	2686.19380619381	2	8	1	0	0	0	0
48.3608421331644	6.00495779001713	panas_none	54.3657999231815	9	5	2	10	n/a	n/a	n/a	n/a	n/a	n/a	n/a	n/a	2000	0	BLOCKED	n/a	n/a	+	0	excited	At this moment	4	3	12	214	NONE	n/a	0.373283395755306	n/a	n/a	n/a	n/a	1485.89641434263	0	2508.18758097116	-0.951245997241695	0.000422277116524748	173.453563465678	2069.49730976172	4	1	0	1	0	1	1
55.3542182295024	6.00055149239302	panas_none	61.3547697218955	10	5	2	10	n/a	n/a	n/a	n/a	n/a	n/a	n/a	n/a	2000	0	BLOCKED	n/a	n/a	+	0	afraid	At this moment	1	3	12	214	NONE	n/a	0.373283395755306	n/a	n/a	n/a	n/a	1951.42430278884	0.229823212913144	1984.74275628798	1.04700129770489	-0.000689668036975964	68.2811400030744	2243.17365269461	5	2	0	1	0	1	1
62.338977432847	6.00477619245648	panas_none	68.3437536253035	11	5	2	10	n/a	n/a	n/a	n/a	n/a	n/a	n/a	n/a	2000	0	BLOCKED	n/a	n/a	+	0	guilty	At this moment	1	3	12	214	NONE	n/a	0	6038.68117266625	-3.60409373581295	0.00096545063648224	37.6524807231587	2778.59176029963	0	3333.17178679139	-0.688907995439387	0.000419675674889881	37.8304646284939	3109.04073789393	3	3	0	1	0	1	1
69.3283855341077	9.64075204664469	panas_none	78.9691375807524	12	5	2	10	n/a	n/a	n/a	n/a	n/a	n/a	n/a	n/a	2000	0	BLOCKED	n/a	n/a	+	0	distressed	At this moment	4	3	12	214	NONE	n/a	0.374531835205993	n/a	n/a	n/a	n/a	2414.50499001996	0.270561106840892	n/a	n/a	n/a	n/a	2051.8387776607	5	4	0	1	0	1	1
79.9536344373524	2.53499067857861	punish_vlpfc	82.488625115931	13	4	3	10	0	0	0	0	250	250	250	750	2000	0	BLOCKED	0.25	1	2	-1	enthusiastic	At this moment	2	3	12	214	VLPFC	678.287735879421	0.535580524344569	n/a	n/a	n/a	n/a	2427.58333333333	0.230591852421214	1667.40392532693	1.71473652883442	-0.000532318527687759	40.8342048610214	2566.18581418581	2	1	0	0	1	0	0
83.4894611699879	2.51870155268907	punish_vlpfc	86.008162722677	14	4	3	10	0	0	0	0	250	250	250	750	2000	0	BLOCKED	0.25	-1	3	1	interested	At this moment	5	3	12	214	VLPFC	356.780342072248	0.614232209737828	n/a	n/a	n/a	n/a	2310.15533980583	0.308993082244427	n/a	n/a	n/a	n/a	2545.93659621802	2	2	0	0	1	0	0
86.9923094309568	2.51878935420514	punish_vlpfc	89.511098785162	15	4	3	10	0	0	0	0	250	250	250	750	2000	0	BLOCKED	0.25	-1	9	-1	upset	At this moment	1	3	12	214	VLPFC	389.645623803139	0.374531835205993	n/a	n/a	n/a	n/a	2628.44510978044	0.230591852421214	1755.28030055888	1.15646144675039	-0.000127081424710446	32.9963060280176	2675.58641358641	2	3	0	0	1	0	0
90.4951552235782	2.51870719453693	punish_vlpfc	93.0138624181151	16	4	3	10	0	0	0	0	250	250	250	750	2000	0	BLOCKED	0.25	1	10	1	jittery	At this moment	3	3	12	214	VLPFC	356.793741494417	0.464419475655431	n/a	n/a	n/a	n/a	2284.29836829837	0.30053804765565	n/a	n/a	n/a	n/a	2428.71758241758	2	4	0	0	1	0	0
93.997992906034	2.51873117247223	punish_vlpfc	96.5167240785062	17	4	3	10	0	0	0	0	250	250	250	750	2000	0	BLOCKED	0.25	1	2	-1	hostile	At this moment	3	3	12	214	VLPFC	389.752819269896	0.374531835205993	n/a	n/a	n/a	n/a	2626.29740518962	0.230591852421214	1762.10060091353	1.34335151424853	-0.000235174856949094	29.607069124607	2732.84115884116	2	5	0	0	1	0	0
97.5008457509875	2.51876467108727	punish_vlpfc	100.019610422075	18	4	3	10	0	0	0	0	250	250	250	750	2000	0	BLOCKED	0.25	-1	9	-1	afraid	At this moment	1	3	12	214	VLPFC	272.886142581701	0.405742821473159	n/a	n/a	n/a	n/a	2688.04411764706	0.230591852421214	1674.78403091493	0.76039279782836	6.43205113014278e-05	75.82952848504	2446.85114885115	2	6	0	0	1	0	0
101.003648171782	2.51906580567361	punish_vlpfc	103.522713977456	19	4	3	10	0	0	0	0	250	250	250	750	2000	0	BLOCKED	0.25	1	3	-1	proud	At this moment	4	3	12	214	VLPFC	339.794798284769	0.374531835205993	n/a	n/a	n/a	n/a	2546.37724550898	0.230591852421214	1943.46448569375	1.31878425550848	-0.000419451444191092	43.1928380700051	2754.83616383616	2	7	0	0	1	0	0
104.50661385408	2.51869238463044	punish_vlpfc	107.025306238711	20	4	3	10	0	0	0	0	250	250	250	750	2000	0	BLOCKED	0.25	-1	8	-1	upset	At this moment	5	3	12	214	VLPFC	306.918232768774	0.710362047440699	n/a	n/a	n/a	n/a	2872.24137931034	0.415833973866257	n/a	n/a	n/a	n/a	2528.94342105263	3	8	0	0	1	0	0
108.025998777807	6.00489149811864	panas_none	114.030890275925	21	5	4	10	n/a	n/a	n/a	n/a	n/a	n/a	n/a	n/a	2000	0	BLOCKED	n/a	n/a	+	0	guilty	At this moment	1	3	12	214	NONE	n/a	0.303370786516854	n/a	n/a	n/a	n/a	1494.07168458781	0	2067.87945542454	-0.074586046901533	-0.00012798303990271	131.321898011352	1898.3143735588	3	1	0	1	0	0	1
115.017578997582	6.00245632752777	panas_none	121.02003532511	22	5	4	10	n/a	n/a	n/a	n/a	n/a	n/a	n/a	n/a	2000	0	BLOCKED	n/a	n/a	+	0	determined	At this moment	4	3	12	214	NONE	n/a	0	-3965.23732587747	6.44557717014267	-0.00161399330279658	49.2169439341401	2367.70661672909	0.11837048424289	1483.63917918818	0.790679380126051	-0.000215164895995221	42.321669111084	2007.48997384481	3	2	0	1	0	0	1
122.003957063973	6.00499763569236	panas_none	128.008954699665	23	5	4	10	n/a	n/a	n/a	n/a	n/a	n/a	n/a	n/a	2000	0	BLOCKED	n/a	n/a	+	0	inspired	At this moment	4	3	12	214	NONE	n/a	0	3871.82267799287	-2.87039873968511	0.000813433990480012	16.1112623515642	1470.57303370787	0.190622598001537	2566.70877396712	-1.0158435650139	0.000138382746814701	84.1919104939848	1683.45014245014	4	3	0	1	0	0	1
129.009817552596	11.6427640772462	panas_none	140.652581629843	24	5	4	10	n/a	n/a	n/a	n/a	n/a	n/a	n/a	n/a	2000	0	BLOCKED	n/a	n/a	+	0	alert	At this moment	3	3	12	214	NONE	n/a	0.314606741573034	n/a	n/a	n/a	n/a	2927.39344262295	0.230591852421214	2506.31334731204	-0.330361407673513	0.000424880128342935	56.8688729089028	2599.07992007992	7	4	0	1	0	0	1
141.636669803739	2.51878089144827	reward_vlpfc	144.155450695187	25	2	5	10	0	0	0	0	250	250	250	750	2000	0	BLOCKED	0.75	1	7	1	scared	At this moment	1	3	12	214	VLPFC	873.395814657211	0.380774032459426	n/a	n/a	n/a	n/a	1955.19556451613	0.277478862413528	n/a	n/a	n/a	n/a	2001.25319148936	3	1	1	0	0	0	0
145.139445425659	2.51869379511473	reward_vlpfc	147.658139220774	26	2	5	10	0	0	0	0	250	250	250	750	2000	0	BLOCKED	0.75	1	9	1	upset	At this moment	4	3	12	214	VLPFC	374.384022831917	0.380774032459426	n/a	n/a	n/a	n/a	2113.79637096774	0.251345119139124	n/a	n/a	n/a	n/a	1978.01334702259	2	2	1	0	0	0	0
148.642936506748	2.51813736605646	reward_vlpfc	151.161073872805	27	2	5	10	0	0	0	0	250	250	250	750	2000	0	BLOCKED	0.75	1	8	1	guilty	At this moment	4	3	12	214	VLPFC	407.371309906244	0.404494382022472	n/a	n/a	n/a	n/a	1912.41719077568	0.230591852421214	1445.84461230433	0.458319170709828	0.000162460914319605	64.9305771860321	1987.52547452547	2	3	1	0	0	0	0
152.145175446153	2.51880804291369	reward_vlpfc	154.663983489066	28	2	5	10	0	0	0	0	250	250	250	750	2000	0	BLOCKED	0.75	1	2	-1	enthusiastic	At this moment	2	3	12	214	VLPFC	339.747195035219	0.374531835205993	n/a	n/a	n/a	n/a	2148.38323353293	0	1281.82290706258	0.776592114177973	5.00923129290594e-05	23.93605059217	1989.46579554189	1	4	1	0	0	0	0
155.648004665822	2.51885035687684	reward_vlpfc	158.166855022699	29	2	5	10	0	0	0	0	250	250	250	750	2000	0	BLOCKED	0.75	-1	10	-1	excited	At this moment	1	3	12	214	VLPFC	690.124018788338	0.448189762796504	n/a	n/a	n/a	n/a	2250.60180995475	0.392006149116065	n/a	n/a	n/a	n/a	2236.38305941846	2	5	1	0	0	0	0
159.150785224348	2.51884154149889	reward_vlpfc	161.669626765847	30	2	5	10	0	0	0	0	250	250	250	750	2000	0	BLOCKED	0.75	1	6	1	determined	At this moment	1	3	12	214	VLPFC	323.514840394258	0.406991260923845	n/a	n/a	n/a	n/a	2026.45263157895	0.274404304381245	n/a	n/a	n/a	n/a	2033.01377118644	3	6	1	0	0	0	0
162.653732570589	2.51874280881881	reward_vlpfc	165.172475379407	31	2	5	10	0	0	0	0	250	250	250	750	2000	0	BLOCKED	0.75	1	10	1	hostile	At this moment	3	3	12	214	VLPFC	390.965115278959	0.389513108614232	n/a	n/a	n/a	n/a	1962.58282208589	0.260568793235972	n/a	n/a	n/a	n/a	2246.21517671518	2	7	1	0	0	0	0
166.156550153881	2.51877524957061	reward_vlpfc	168.675325403452	32	2	5	10	0	0	0	0	250	250	250	750	2000	0	BLOCKED	0.75	1	9	1	scared	At this moment	4	3	12	214	VLPFC	561.192211002111	0.425717852684145	n/a	n/a	n/a	n/a	2129.28913043478	0.279016141429669	n/a	n/a	n/a	n/a	1622.78144989339	2	8	1	0	0	0	0
169.67600277999	6.00504136019947	panas_none	175.68104414019	33	5	6	10	n/a	n/a	n/a	n/a	n/a	n/a	n/a	n/a	2000	0	BLOCKED	n/a	n/a	+	0	interested	At this moment	1	3	12	214	NONE	n/a	0	2355.16715424336	-1.78634500664247	0.000673569244375288	14.1199459730256	1609.92634207241	0	1520.64057009963	-0.160454012264219	5.74851747270833e-05	108.981077379002	1437.05918524212	4	1	0	1	0	1	1
176.665132314056	6.00481815385817	panas_none	182.669950467914	34	5	6	10	n/a	n/a	n/a	n/a	n/a	n/a	n/a	n/a	2000	0	BLOCKED	n/a	n/a	+	0	excited	At this moment	3	3	12	214	NONE	n/a	1	n/a	n/a	n/a	n/a	n/a	1	n/a	n/a	n/a	n/a	n/a	5	2	0	1	0	1	1
183.654178983271	6.00484847885369	panas_none	189.659027462125	35	5	6	10	n/a	n/a	n/a	n/a	n/a	n/a	n/a	n/a	2000	0	BLOCKED	n/a	n/a	+	0	attentive	At this moment	2	3	12	214	NONE	n/a	0.0474406991260924	-874.970306258622	1.93564659360939	-0.000294113559300198	15.5257167894393	1864.87942332896	0	2981.35575935329	-3.21686428431173	0.00147598193599876	22.361190334229	1483.6571867794	4	3	0	1	0	1	1
190.643072264165	6.65566702550649	panas_none	197.298739289671	36	5	6	10	n/a	n/a	n/a	n/a	n/a	n/a	n/a	n/a	2000	0	BLOCKED	n/a	n/a	+	0	jittery	At this moment	4	3	12	214	NONE	n/a	0.0649188514357054	3540.51301052138	-1.31180810205307	0.000446536591062048	23.0021947258589	2760.56074766355	0.471176018447348	n/a	n/a	n/a	n/a	2629.60465116279	6	4	0	1	0	1	1
198.282702284664	2.51873540389539	reward_rtpj	200.801437688559	37	1	7	10	750	250	250	250	0	0	0	0	2000	0	BLOCKED	0.75	1	7	1	alert	At this moment	1	3	12	214	RTPJ	774.2971380651	0.374531835205993	n/a	n/a	n/a	n/a	2428.05588822355	0.198308993082244	699.532931252206	2.40392355140272	-0.00073981724457208	21.5390517051147	2275.26462128476	2	1	1	0	0	0	0
201.785460275769	2.5187886489928	reward_rtpj	204.304248924762	38	1	7	10	750	250	250	250	0	0	0	0	2000	0	BLOCKED	0.75	1	10	1	irritable	At this moment	3	3	12	214	RTPJ	790.643740475178	0.374531835205993	n/a	n/a	n/a	n/a	2453.08982035928	0.260568793235972	n/a	n/a	n/a	n/a	2481.56029106029	2	2	1	0	0	0	0
205.288588161707	2.51846988353134	reward_rtpj	207.807058045238	39	1	7	10	750	250	250	250	0	0	0	0	2000	0	BLOCKED	0.75	1	0	-1	inspired	At this moment	3	3	12	214	RTPJ	627.049011230469	0.583021223470662	n/a	n/a	n/a	n/a	2154.99700598802	0.230591852421214	126.319829626364	3.96382484482685	-0.0015698005283225	24.200361461258	2376.72527472527	2	3	1	0	0	0	0
208.807885636538	2.51877736523747	reward_rtpj	211.326663001776	40	1	7	10	750	250	250	250	0	0	0	0	2000	0	BLOCKED	0.75	-1	10	-1	attentive	At this moment	3	3	12	214	RTPJ	389.513392537832	0.429463171036205	n/a	n/a	n/a	n/a	2414.58424507659	0.230591852421214	1427.99339589344	1.0725766519132	-6.8491261211622e-05	30.9113304263763	2320.08791208791	2	4	1	0	0	0	0
212.310732486993	2.5188175635636	reward_rtpj	214.829550050557	41	1	7	10	750	250	250	250	0	0	0	0	2000	0	BLOCKED	0.75	1	10	1	scared	At this moment	3	3	12	214	RTPJ	289.673868387938	0.49812734082397	n/a	n/a	n/a	n/a	2001.48507462687	0.230591852421214	1370.38474639294	1.61079151059917	-0.000424952072963522	31.3581486125824	2431.27472527473	2	5	1	0	0	0	0
215.81348131004	2.51880240106584	reward_rtpj	218.332283711106	42	1	7	10	750	250	250	250	0	0	0	0	2000	0	BLOCKED	0.75	1	7	1	afraid	At this moment	5	3	12	214	RTPJ	591.291920393705	0.448189762796504	n/a	n/a	n/a	n/a	1908.5	0.48347425057648	n/a	n/a	n/a	n/a	2044.96279761905	3	6	1	0	0	0	0
219.316459333926	2.51876079228521	reward_rtpj	221.835220126212	43	1	7	10	750	250	250	250	0	0	0	0	2000	0	BLOCKED	0.75	1	7	1	excited	At this moment	2	3	12	214	RTPJ	473.807459354401	0.456928838951311	n/a	n/a	n/a	n/a	1837.91034482759	0.255188316679477	n/a	n/a	n/a	n/a	2020.67079463364	2	7	1	0	0	0	0
222.819243771285	2.51874774545431	reward_rtpj	225.337991516739	44	1	7	10	750	250	250	250	0	0	0	0	2000	0	BLOCKED	0.75	1	8	1	upset	At this moment	1	3	12	214	RTPJ	306.367445588112	0.374531835205993	n/a	n/a	n/a	n/a	2089.86427145709	0	1513.28555679265	1.18514141791925	-0.000213243898270944	26.8238295117248	2336.05611068409	2	8	1	0	0	0	0
226.338687229365	6.00502796071765	panas_none	232.343715190083	45	5	8	10	n/a	n/a	n/a	n/a	n/a	n/a	n/a	n/a	2000	0	BLOCKED	n/a	n/a	+	0	inspired	At this moment	1	3	12	214	NONE	n/a	0.373283395755306	n/a	n/a	n/a	n/a	1400.12749003984	0	1788.07999628971	-0.701450483130356	0.000361355859790956	138.641327548347	1509.02229054573	5	1	0	1	0	1	0
233.327971209526	6.0046778124273	panas_none	239.332649021953	46	5	8	10	n/a	n/a	n/a	n/a	n/a	n/a	n/a	n/a	2000	0	BLOCKED	n/a	n/a	+	0	jittery	At this moment	3	3	12	214	NONE	n/a	0.373283395755306	n/a	n/a	n/a	n/a	2469.96015936255	0	2653.75872899241	-1.19615111074567	0.000645627940566852	23.6048226642004	2196.3428132206	5	2	0	1	0	1	0
240.316900104731	6.00489749258756	panas_none	246.321797597319	47	5	8	10	n/a	n/a	n/a	n/a	n/a	n/a	n/a	n/a	2000	0	BLOCKED	n/a	n/a	+	0	excited	At this moment	3	3	12	214	NONE	n/a	0.398252184769039	n/a	n/a	n/a	n/a	1484.2468879668	0.229823212913144	1874.68869446601	1.0838553386105	-0.000891998105991119	99.4104267589549	1948.3622754491	8	3	0	1	0	1	0
247.32245663783	13.2941679675281	panas_none	260.616624605358	48	5	8	10	n/a	n/a	n/a	n/a	n/a	n/a	n/a	n/a	2000	0	BLOCKED	n/a	n/a	+	0	ashamed	At this moment	1	3	12	214	NONE	n/a	0.179775280898876	-14473.4616769595	14.1259081063298	-0.00292315149629251	19.0634307982779	2279.69101978691	0.405841660261337	n/a	n/a	n/a	n/a	2193.92626131953	11	4	0	1	0	1	0
261.617395777941	2.51875056639312	punish_vlpfc	264.136146344334	49	4	9	10	0	0	0	0	250	250	250	750	2000	0	BLOCKED	0.25	-1	10	-1	afraid	At this moment	1	3	12	214	VLPFC	573.49606359005	0	6916.61936806763	-3.49758826411327	0.000714332361159796	61.5529169969669	2760.39825218477	0.230591852421214	1391.41816998003	0.894299307479388	5.38795861307018e-05	43.4925201482508	2131.92407592408	1	1	0	0	1	0	0
265.120314562231	2.51869379511476	punish_vlpfc	267.639008357346	50	4	9	10	0	0	0	0	250	250	250	750	2000	0	BLOCKED	0.25	1	7	1	scared	At this moment	3	3	12	214	VLPFC	573.088438719511	0.581772784019975	n/a	n/a	n/a	n/a	2048.48358208955	0.297463489623367	n/a	n/a	n/a	n/a	1944.0295404814	2	2	0	0	1	0	0
268.623160002232	2.51871424686908	punish_vlpfc	271.141874249101	51	4	9	10	0	0	0	0	250	250	250	750	2000	0	BLOCKED	0.25	1	10	1	distressed	At this moment	1	3	12	214	VLPFC	323.788823544979	0.374531835205993	n/a	n/a	n/a	n/a	1990.60878243513	0	1072.94928396658	1.11070702744268	-9.18182642542012e-05	74.2891959856398	1941.47732513451	1	3	0	0	1	0	0
272.125869684845	2.51871107333898	punish_vlpfc	274.644580758184	52	4	9	10	0	0	0	0	250	250	250	750	2000	0	BLOCKED	0.25	1	2	-1	hostile	At this moment	1	3	12	214	VLPFC	373.712640702724	0.374531835205993	n/a	n/a	n/a	n/a	2743.54091816367	0.230591852421214	1373.56038580577	0.664994004877247	0.000165772266081603	43.726792351778	2133.82917082917	2	4	0	0	1	0	0
275.630379828066	2.51727698141332	punish_vlpfc	278.147656809479	53	4	9	10	0	0	0	0	250	250	250	750	2000	0	BLOCKED	0.25	-1	10	-1	inspired	At this moment	5	3	12	214	VLPFC	1189.09913849831	0	-9920.52357918521	12.7004169491314	-0.00316524240660428	60.6593533598797	2622.66167290886	0.208301306687164	1891.1085393526	0.925910449345726	-0.000175176753193344	17.7033355094891	2447.75436893204	2	5	0	0	1	0	0
279.131703374624	2.51867969045043	punish_vlpfc	281.650383065075	54	4	9	10	0	0	0	0	250	250	250	750	2000	0	BLOCKED	0.25	1	0	-1	alert	At this moment	1	3	12	214	VLPFC	323.469000250101	0	3042.40515412967	-0.496866886859092	0.000147950406991877	25.7157263574041	2659.4531835206	0.230591852421214	1287.00941571298	1.31849102138635	-0.000280918886579683	43.0885564562514	2201.85614385614	1	6	0	0	1	0	0
282.651142953932	2.51865430206061	punish_vlpfc	285.169797255993	55	4	9	10	0	0	0	0	250	250	250	750	2000	0	BLOCKED	0.25	-1	8	-1	afraid	At this moment	2	3	12	214	VLPFC	473.558159351349	0.358302122347066	n/a	n/a	n/a	n/a	2749.78988326848	0.243658724058417	2157.55212880509	0.252429912493245	0.000118309669705993	38.0302198362394	2396.52235772358	3	7	0	0	1	0	0
286.15425497213	2.5185629743338	punish_vlpfc	288.672817946464	56	4	9	10	0	0	0	0	250	250	250	750	2000	0	BLOCKED	0.25	1	0	-1	hostile	At this moment	4	3	12	214	VLPFC	289.223576933146	0.374531835205993	n/a	n/a	n/a	n/a	2765.78043912176	0	2075.57960613108	-0.0511580857323744	0.000446661472981871	50.603606790495	2416.8385857033	2	8	0	0	1	0	0
289.673550683856	6.0048206221461	panas_none	295.678371306002	57	5	10	10	n/a	n/a	n/a	n/a	n/a	n/a	n/a	n/a	2000	0	BLOCKED	n/a	n/a	+	0	strong	At this moment	3	3	12	214	NONE	n/a	0.841448189762796	n/a	n/a	n/a	n/a	1140.88976377953	0.164488854727133	960.573011974135	2.10076886346902	-0.00125981438095639	35.9186464749534	1694.41030358786	5	1	0	1	0	0	1
296.662509198874	6.00496942636369	panas_none	302.667478625238	58	5	10	10	n/a	n/a	n/a	n/a	n/a	n/a	n/a	n/a	2000	0	BLOCKED	n/a	n/a	+	0	ashamed	At this moment	1	3	12	214	NONE	n/a	0	10850.7107243061	-9.24455631039318	0.00223625895292327	25.8871711131703	1417.62297128589	0.242121445042275	1007.1564540289	1.5916138155463	-0.000824547295527692	93.0403941964361	1652.77687626775	5	2	0	1	0	0	1
303.651605586976	6.0048583521247	panas_none	309.6564639391	59	5	10	10	n/a	n/a	n/a	n/a	n/a	n/a	n/a	n/a	2000	0	BLOCKED	n/a	n/a	+	0	guilty	At this moment	1	3	12	214	NONE	n/a	0	4609.89191133217	-3.94404437284924	0.00109185752930397	17.5011990660924	1200.40199750312	0.457340507302075	n/a	n/a	n/a	n/a	1211.73229461756	6	3	0	1	0	0	1
310.642161455363	6.22020451062923	panas_none	316.862365965992	60	5	10	10	n/a	n/a	n/a	n/a	n/a	n/a	n/a	n/a	2000	0	BLOCKED	n/a	n/a	+	0	afraid	At this moment	5	3	12	214	NONE	n/a	0.389513108614232	n/a	n/a	n/a	n/a	2354.81595092025	0.230591852421214	1597.73173912002	0.118270839695243	0.000367221101652453	45.8573823425611	2034.6023976024	4	4	0	1	0	0	1
317.846380443007	2.51897941461203	reward_rtpj	320.365359857619	61	1	11	10	750	250	250	250	0	0	0	0	2000	0	BLOCKED	0.75	-1	6	-1	inspired	At this moment	1	3	12	214	RTPJ	990.428573817015	0.538077403245943	n/a	n/a	n/a	n/a	2455.35405405405	0.230591852421214	1221.05943884433	1.56167047069083	-0.000365599216671458	32.146465290963	2294.13186813187	2	1	1	0	0	0	0
321.349323205233	2.51867122763394	reward_rtpj	323.867994432867	62	1	11	10	750	250	250	250	0	0	0	0	2000	0	BLOCKED	0.75	1	10	1	strong	At this moment	1	3	12	214	RTPJ	356.424904465675	0.374531835205993	n/a	n/a	n/a	n/a	2326.23952095808	0	519.286067478122	2.12953750681496	-0.000375793188588972	23.1570619227485	2082.10991544965	1	2	1	0	0	0	0
324.852134441406	2.51871988874672	reward_rtpj	327.370854330152	63	1	11	10	750	250	250	250	0	0	0	0	2000	0	BLOCKED	0.75	1	6	1	guilty	At this moment	2	3	12	214	RTPJ	923.503345102072	0.47940074906367	n/a	n/a	n/a	n/a	2490.59952038369	0.369715603382014	n/a	n/a	n/a	n/a	2488.96341463415	2	3	1	0	0	0	0
328.354887495875	2.51869238466026	reward_rtpj	330.873579880536	64	1	11	10	750	250	250	250	0	0	0	0	2000	0	BLOCKED	0.75	1	7	1	afraid	At this moment	4	3	12	214	RTPJ	406.465790361166	0.539325842696629	n/a	n/a	n/a	n/a	1736.22764227642	0.242121445042275	1291.69509048472	0.468645056304573	8.19542737990552e-06	55.3901610254594	1731.17444219067	2	4	1	0	0	0	0
331.858260803014	2.51830909031628	reward_rtpj	334.37656989333	65	1	11	10	750	250	250	250	0	0	0	0	2000	0	BLOCKED	0.75	1	8	1	enthusiastic	At this moment	2	3	12	214	RTPJ	572.589133530855	0.380774032459426	n/a	n/a	n/a	n/a	1888.29637096774	0.261337432744043	n/a	n/a	n/a	n/a	1729.90218522373	2	5	1	0	0	0	0
335.360699676037	2.51868744802471	reward_rtpj	337.879387124062	66	1	11	10	750	250	250	250	0	0	0	0	2000	0	BLOCKED	0.75	1	2	-1	attentive	At this moment	1	3	12	214	RTPJ	374.998986214399	0.416978776529338	n/a	n/a	n/a	n/a	2273.93790149893	0.230591852421214	1441.66700103518	0.701322662242005	3.90260471657912e-05	44.856102219549	2094.02897102897	2	6	1	0	0	0	0
338.863401953667	2.51875127163532	reward_rtpj	341.382153225303	67	1	11	10	750	250	250	250	0	0	0	0	2000	0	BLOCKED	0.75	-1	1	1	inspired	At this moment	2	3	12	214	RTPJ	373.237666100264	0.586766541822722	n/a	n/a	n/a	n/a	2152.37160120846	0.230591852421214	1756.02120202339	0.476432033653356	0.000141680737069445	37.2066338708215	2330.03596403596	2	7	1	0	0	0	0
342.366450500906	2.5352752401829	reward_rtpj	344.901725741088	68	1	11	10	750	250	250	250	0	0	0	0	2000	0	BLOCKED	0.75	-1	3	1	jittery	At this moment	2	3	12	214	RTPJ	443.043772757053	0	8171.92796119716	-4.92151608506136	0.00102735122304202	86.5668044193339	2421.18102372035	0.241352805534204	1072.75003258394	0.878230554545503	3.60673341848938e-05	69.2907834922548	1930.71529888551	1	8	1	0	0	0	0
345.902694026411	6.0047225947082	panas_none	351.907416621119	69	5	12	10	n/a	n/a	n/a	n/a	n/a	n/a	n/a	n/a	2000	0	BLOCKED	n/a	n/a	+	0	guilty	At this moment	1	3	12	214	NONE	n/a	0.373283395755306	n/a	n/a	n/a	n/a	1595.15338645418	0.0253651037663336	1480.01714284285	1.28438004029933	-0.00101461542808589	41.5808264546572	1683.80441640379	5	1	0	1	0	1	0
352.908237865299	6.00488197743891	panas_none	358.913119842738	70	5	12	10	n/a	n/a	n/a	n/a	n/a	n/a	n/a	n/a	2000	0	BLOCKED	n/a	n/a	+	0	strong	At this moment	3	3	12	214	NONE	n/a	0.456928838951311	n/a	n/a	n/a	n/a	1783.70804597701	0.207532667179093	2347.95442986955	0.161497592187757	-0.000202900006123927	60.4935412612272	2286.42677012609	5	2	0	1	0	1	0
359.913980579972	6.00522789436582	panas_none	365.919208474338	71	5	12	10	n/a	n/a	n/a	n/a	n/a	n/a	n/a	n/a	2000	0	BLOCKED	n/a	n/a	+	0	interested	At this moment	1	3	12	214	NONE	n/a	0.187265917602996	-10934.498060904	10.7305645583929	-0.00220559686670265	21.3838274035029	1885.05683563748	0	1825.88488307197	0.097681590470367	-0.000184577249645023	53.2178868806281	1749.52190622598	6	3	0	1	0	1	0
366.904669384837	11.7911966433823	panas_none	378.695866028219	72	5	12	10	n/a	n/a	n/a	n/a	n/a	n/a	n/a	n/a	2000	0	BLOCKED	n/a	n/a	+	0	distressed	At this moment	4	3	12	214	NONE	n/a	1	n/a	n/a	n/a	n/a	n/a	1	n/a	n/a	n/a	n/a	n/a	8	4	0	1	0	1	0
379.696719360501	2.51868427446482	punish_rtpj	382.215403634965	73	3	13	10	750	250	250	250	0	0	0	0	2000	0	BLOCKED	0.25	-1	9	-1	afraid	At this moment	2	3	12	214	RTPJ	890.428256452084	0.485642946317104	n/a	n/a	n/a	n/a	2182.38106796117	0.235203689469639	1520.70754202935	1.26474152627005	-0.000499840061976312	55.3995050927117	2039.35075376884	2	1	0	0	1	0	0
383.199520723432	2.51873787221308	punish_rtpj	385.718258595645	74	3	13	10	750	250	250	250	0	0	0	0	2000	0	BLOCKED	0.25	1	3	-1	alert	At this moment	1	3	12	214	RTPJ	339.950654804707	0.374531835205993	n/a	n/a	n/a	n/a	2824.4251497006	0	1763.23445587668	0.578269375043274	0.000181070644932226	20.8452381445222	2410.6471944658	2	2	0	0	1	0	0
386.702256499648	2.51882073712346	punish_rtpj	389.221077236772	75	3	13	10	750	250	250	250	0	0	0	0	2000	0	BLOCKED	0.25	-1	0	1	inspired	At this moment	4	3	12	214	RTPJ	307.022959947586	0.499375780274657	n/a	n/a	n/a	n/a	2253.05486284289	0.340507302075327	n/a	n/a	n/a	n/a	2253.91375291375	2	3	0	0	1	0	0
390.221908354223	2.51877207598091	punish_rtpj	392.740680430204	76	3	13	10	750	250	250	250	0	0	0	0	2000	0	BLOCKED	0.25	-1	6	-1	proud	At this moment	1	3	12	214	RTPJ	339.515878498554	0.454431960049938	n/a	n/a	n/a	n/a	2401.10297482838	0.357417371252882	n/a	n/a	n/a	n/a	2198.05023923445	2	4	0	0	1	0	0
393.724764020115	2.51871565732364	punish_rtpj	396.243479677439	77	3	13	10	750	250	250	250	0	0	0	0	2000	0	BLOCKED	0.25	1	2	-1	interested	At this moment	4	3	12	214	RTPJ	373.51341226697	0.461922596754057	n/a	n/a	n/a	n/a	2188.44315545244	0.328977709454266	n/a	n/a	n/a	n/a	2174.6529209622	2	5	0	0	1	0	0
397.227508611768	2.51866664361955	punish_rtpj	399.746175255388	78	3	13	10	750	250	250	250	0	0	0	0	2000	0	BLOCKED	0.25	-1	8	-1	strong	At this moment	2	3	12	214	RTPJ	439.736581265926	0.535580524344569	n/a	n/a	n/a	n/a	1863.46774193548	0.371252882398155	n/a	n/a	n/a	n/a	2099.15403422983	2	6	0	0	1	0	0
400.730428453863	2.51882778945566	punish_rtpj	403.249256243318	79	3	13	10	750	250	250	250	0	0	0	0	2000	0	BLOCKED	0.25	1	3	-1	scared	At this moment	2	3	12	214	RTPJ	489.978106051683	0.438202247191011	n/a	n/a	n/a	n/a	1916.92	0.349730976172175	n/a	n/a	n/a	n/a	1734.00591016548	2	7	0	0	1	0	0
404.233277067453	2.51870966285469	punish_rtpj	406.751986730307	80	3	13	10	750	250	250	250	0	0	0	0	2000	0	BLOCKED	0.25	1	9	1	upset	At this moment	3	3	12	214	RTPJ	356.626248568296	0.397003745318352	n/a	n/a	n/a	n/a	2270.45755693582	0.313604919292852	n/a	n/a	n/a	n/a	2227.33370660694	2	8	0	0	1	0	0
407.752741682529	6.00494721153376	panas_none	413.757688894063	81	5	14	10	n/a	n/a	n/a	n/a	n/a	n/a	n/a	n/a	2000	0	BLOCKED	n/a	n/a	+	0	irritable	At this moment	4	3	12	214	NONE	n/a	0.373283395755306	n/a	n/a	n/a	n/a	1877.79083665339	0	2012.67443628612	0.827122337968073	-0.000615399679717601	82.1342516228713	2197.30668716372	6	1	0	1	0	0	0
414.74185358578	6.00481039628386	panas_none	420.746663982064	82	5	14	10	n/a	n/a	n/a	n/a	n/a	n/a	n/a	n/a	2000	0	BLOCKED	n/a	n/a	+	0	inspired	At this moment	1	3	12	214	NONE	n/a	0.721598002496879	n/a	n/a	n/a	n/a	1968.25560538117	0	2516.25342724089	-0.0702587424786142	-0.000137373875781279	65.1220761251715	2337.72559569562	6	2	0	1	0	0	0
421.74740447703	6.00495250073072	panas_none	427.752356977761	83	5	14	10	n/a	n/a	n/a	n/a	n/a	n/a	n/a	n/a	2000	0	BLOCKED	n/a	n/a	+	0	hostile	At this moment	1	3	12	214	NONE	n/a	0.399500624219725	n/a	n/a	n/a	n/a	1139.65904365904	0	1649.26668112196	-0.285927359442943	5.24606213246746e-05	22.6684563601655	1450.285933897	4	3	0	1	0	0	0
428.736516027629	7.70623013666273	panas_none	436.442746164292	84	5	14	10	n/a	n/a	n/a	n/a	n/a	n/a	n/a	n/a	2000	0	BLOCKED	n/a	n/a	+	0	afraid	At this moment	3	3	12	214	NONE	n/a	0	866.544411625821	1.16566207079908	-0.000183175903227182	17.2596492312993	2496.91885143571	0.273635664873174	n/a	n/a	n/a	n/a	2137.11428571429	4	4	0	1	0	0	0
437.443560708731	2.51876890248059	punish_rtpj	439.962329611212	85	3	15	10	750	250	250	250	0	0	0	0	2000	0	BLOCKED	0.25	1	2	-1	distressed	At this moment	2	3	12	214	RTPJ	706.650808334351	0.374531835205993	n/a	n/a	n/a	n/a	2451.64471057884	0.235972328977709	1215.24078841768	1.18319111682867	-0.000127096672034507	56.8646808273343	2172.86418511066	2	1	0	0	1	0	0
440.94643753162	2.51876255539059	punish_rtpj	443.465200087011	86	3	15	10	750	250	250	250	0	0	0	0	2000	0	BLOCKED	0.25	1	1	-1	strong	At this moment	3	3	12	214	RTPJ	324.167181223631	0.51310861423221	n/a	n/a	n/a	n/a	2162.02307692308	0.330514988470407	n/a	n/a	n/a	n/a	2131.02296211251	2	2	0	0	1	0	0
444.449272040546	2.51877560216184	punish_rtpj	446.968047642708	87	3	15	10	750	250	250	250	0	0	0	0	2000	0	BLOCKED	0.25	1	4	-1	hostile	At this moment	1	3	12	214	RTPJ	307.023665159941	0.450686641697878	n/a	n/a	n/a	n/a	2089.78636363636	0.331283627978478	n/a	n/a	n/a	n/a	1907.0816091954	2	3	0	0	1	0	0
447.968837503999	2.51867898520828	punish_rtpj	450.487516489208	88	3	15	10	750	250	250	250	0	0	0	0	2000	0	BLOCKED	0.25	1	0	-1	irritable	At this moment	3	3	12	214	RTPJ	256.247926175594	0.525593008739076	n/a	n/a	n/a	n/a	1994.38157894737	0.33282090699462	n/a	n/a	n/a	n/a	2047.63940092166	2	4	0	0	1	0	0
451.471643450946	2.51880769029259	punish_rtpj	453.990451141238	89	3	15	10	750	250	250	250	0	0	0	0	2000	0	BLOCKED	0.25	1	9	1	attentive	At this moment	3	3	12	214	RTPJ	373.078283369541	0.504369538077403	n/a	n/a	n/a	n/a	1804.81360201511	0.308224442736357	n/a	n/a	n/a	n/a	1904.54888888889	2	5	0	0	1	0	0
454.974388747841	2.5191864005327	punish_rtpj	457.493575148374	90	3	15	10	750	250	250	250	0	0	0	0	2000	0	BLOCKED	0.25	1	0	-1	active	At this moment	1	3	12	214	RTPJ	407.156566351652	0.384519350811486	n/a	n/a	n/a	n/a	1584.3752535497	0.575710991544965	n/a	n/a	n/a	n/a	1461.29891304348	3	6	0	0	1	0	0
458.477342793793	2.51879464346166	punish_rtpj	460.996137437254	91	3	15	10	750	250	250	250	0	0	0	0	2000	0	BLOCKED	0.25	1	3	-1	inspired	At this moment	5	3	12	214	RTPJ	289.507785916328	0.454431960049938	n/a	n/a	n/a	n/a	1940.73455377574	0.259031514219831	n/a	n/a	n/a	n/a	1434.19917012448	2	7	0	0	1	0	0
461.980322933376	2.5185689688027	punish_rtpj	464.498891902179	92	3	15	10	750	250	250	250	0	0	0	0	2000	0	BLOCKED	0.25	1	10	1	strong	At this moment	4	3	12	214	RTPJ	339.264462798834	0.594257178526841	n/a	n/a	n/a	n/a	2041.37538461538	0.326671790930054	n/a	n/a	n/a	n/a	2201.48744292237	4	8	0	0	1	0	0
465.499632749766	6.02162738925216	panas_none	471.521260139018	93	5	16	10	n/a	n/a	n/a	n/a	n/a	n/a	n/a	n/a	2000	0	BLOCKED	n/a	n/a	+	0	determined	At this moment	3	3	12	214	NONE	n/a	0	1040.49472081672	-0.693349350854615	0.000346010225297529	26.3767678289881	1109.19101123596	0.00153727901614143	1749.26114621857	0.48722939450878	-0.000669143553582795	144.205407440225	1571.25019245574	4	1	0	1	0	0	0
472.52202461189	6.00490525016193	panas_none	478.526929862052	94	5	16	10	n/a	n/a	n/a	n/a	n/a	n/a	n/a	n/a	2000	0	BLOCKED	n/a	n/a	+	0	distressed	At this moment	1	3	12	214	NONE	n/a	0	6848.89590538387	-5.6228481568373	0.00132253693968093	13.4156746198602	936.289637952559	0.555726364335127	n/a	n/a	n/a	n/a	933.548442906574	10	2	0	1	0	0	0
479.511241242319	6.00471131098271	panas_none	485.515952553302	95	5	16	10	n/a	n/a	n/a	n/a	n/a	n/a	n/a	n/a	2000	0	BLOCKED	n/a	n/a	+	0	inspired	At this moment	1	3	12	214	NONE	n/a	0.476903870162297	n/a	n/a	n/a	n/a	1717.31503579952	0	2000.45889326505	-0.201451529942064	0.000183868961236278	34.067637858945	1973.52498078401	5	3	0	1	0	0	0
486.516778028846	14.2782772984505	panas_none	500.795055327296	96	5	16	10	n/a	n/a	n/a	n/a	n/a	n/a	n/a	n/a	2000	0	BLOCKED	n/a	n/a	+	0	irritable	At this moment	4	3	12	214	NONE	n/a	0	-3150.87047376225	4.99753676861687	-0.00109628113262018	32.156605838944	2450.86017478152	0.30130668716372	n/a	n/a	n/a	n/a	1738.7403740374	8	4	0	1	0	0	0
