onset	duration	trial_type	offset	trial	block	blockCntr	frequency	amplitude_1	amplitude_2	amplitude_3	amplitude_4	amplitude_5	amplitude_6	amplitude_7	amplitude_8	transition	sham	mode	rewardFraction	guess	outcome	correct	word	when	answer	runNr	scanNr	subjectNr	target	reactionTime	outcomeEyeClosed	outcomeParms_1	outcomeParms_2	outcomeParms_3	outcomeSigma	outcomePupilArea	guessEyeClosed	guessParms_1	guessParms_2	guessParms_3	guessSigma	guessPupilArea	nrBlinks	trialInBlock	isReward	isPanas	isPunish	beforePanasReward	beforePanasVLPFC
20.3668274480999	2.51769694787264	reward_vlpfc	22.8845243959725	1	2	1	10	0	0	0	0	250	250	250	750	2000	0	BLOCKED	0.75	1	6	1	enthusiastic	At this moment	5	2	8	214	VLPFC	973.641200572252	0.611735330836454	n/a	n/a	n/a	n/a	2213.08360128617	0.25826287471176	n/a	n/a	n/a	n/a	2244.73160621762	2	1	1	0	0	0	0
23.8851714474857	2.51881368479133	reward_vlpfc	26.403985132277	2	2	1	10	0	0	0	0	250	250	250	750	2000	0	BLOCKED	0.75	1	0	-1	guilty	At this moment	2	2	8	214	VLPFC	508.63963675499	0.373283395755306	n/a	n/a	n/a	n/a	3046.98207171315	0	2133.06917285683	1.4746828680094	-0.000434971451968954	17.6472991549914	3010.8378170638	1	2	1	0	0	0	0
27.4049481283128	2.5185721423924	reward_vlpfc	29.9235202707052	3	2	1	10	0	0	0	0	250	250	250	750	2000	0	BLOCKED	0.75	1	7	1	proud	At this moment	5	2	8	214	VLPFC	440.057815045118	0.374531835205993	n/a	n/a	n/a	n/a	2506.25948103792	0	2575.67956296171	0.728371535363182	-0.000129747489223875	23.5931953916557	3082.15603382014	1	3	1	0	0	0	0
30.9243030796647	2.51875832393766	reward_vlpfc	33.4430614036024	4	2	1	10	0	0	0	0	250	250	250	750	2000	0	BLOCKED	0.75	1	10	1	irritable	At this moment	1	2	8	214	VLPFC	323.200306326151	0.430711610486891	n/a	n/a	n/a	n/a	1966.83771929825	0.230591852421214	1857.41532281539	0.709726922291899	-0.000149216304538502	55.4351990965751	2345.21978021978	2	4	1	0	0	0	0
34.4437994302213	2.51921884131432	reward_vlpfc	36.9630182715356	5	2	1	10	0	0	0	0	250	250	250	750	2000	0	BLOCKED	0.75	1	10	1	determined	At this moment	2	2	8	214	VLPFC	408.04198679328	0.625468164794007	n/a	n/a	n/a	n/a	2206.13666666667	0.253651037663336	n/a	n/a	n/a	n/a	1794.44593202884	2	5	1	0	0	0	0
37.9468229416609	2.51859083107114	reward_vlpfc	40.465413772732	6	2	1	10	0	0	0	0	250	250	250	750	2000	0	BLOCKED	0.75	1	9	1	strong	At this moment	2	2	8	214	VLPFC	357.281762927771	0.554307116104869	n/a	n/a	n/a	n/a	1726.80392156863	0.242890084550346	49.3097327654359	3.21628510918693	-0.00138068868297859	54.5998261887927	1767.58680203046	2	6	1	0	0	0	0
41.4666697932184	2.51825020337105	reward_vlpfc	43.9849199965894	7	2	1	10	0	0	0	0	250	250	250	750	2000	0	BLOCKED	0.75	1	1	-1	alert	At this moment	5	2	8	214	VLPFC	422.501032263041	0.347066167290886	n/a	n/a	n/a	n/a	1517.30019120459	0	1136.31773222297	0.0709295939672949	0.000182754533717893	41.1507614542809	1356.66948501153	1	7	1	0	0	0	0
44.9856858799458	2.51865394940972	reward_vlpfc	47.5043398293555	8	2	1	10	0	0	0	0	250	250	250	750	2000	0	BLOCKED	0.75	-1	1	1	guilty	At this moment	1	2	8	214	VLPFC	441.984159737825	0.675405742821473	n/a	n/a	n/a	n/a	1746.15384615385	0.268255188316679	n/a	n/a	n/a	n/a	1736.37920168067	2	8	1	0	0	0	0
48.5125318192542	6.01430953603983	panas_none	54.526841355294	9	5	2	10	n/a	n/a	n/a	n/a	n/a	n/a	n/a	n/a	2000	0	BLOCKED	n/a	n/a	+	0	inspired	At this moment	3	2	8	214	NONE	n/a	0	3186.80303013561	-2.32516419771905	0.000732503278219715	17.5286902971794	1574.50312109863	0	1473.53702724865	0.614607371063043	-0.000266712934287169	130.293433540292	1769.80399692544	3	1	0	1	0	1	1
55.5275860816538	6.02167287683486	panas_none	61.5492589584887	10	5	2	10	n/a	n/a	n/a	n/a	n/a	n/a	n/a	n/a	2000	0	BLOCKED	n/a	n/a	+	0	nervous	At this moment	1	2	8	214	NONE	n/a	0	2050.22711394672	-1.34804455393749	0.000486340868679985	22.1748952247218	1390.31335830212	0.229054573405073	-1057.75452532583	6.54970787069718	-0.00346999570684476	138.387205277049	1725.14656031904	6	2	0	1	0	1	1
62.5500449409783	6.02150679442287	panas_none	68.5715517354012	11	5	2	10	n/a	n/a	n/a	n/a	n/a	n/a	n/a	n/a	2000	0	BLOCKED	n/a	n/a	+	0	proud	At this moment	3	2	8	214	NONE	n/a	0.474406991260924	n/a	n/a	n/a	n/a	899.724465558195	0.048424289008455	789.094583712705	0.936314962753564	-0.000565094196080933	75.7924870651817	1089.58319870759	10	3	0	1	0	1	1
69.572430103451	8.47361739894748	panas_none	78.0460475023985	12	5	2	10	n/a	n/a	n/a	n/a	n/a	n/a	n/a	n/a	2000	0	BLOCKED	n/a	n/a	+	0	ashamed	At this moment	3	2	8	214	NONE	n/a	0.374531835205993	n/a	n/a	n/a	n/a	2221.83233532934	0.235972328977709	1431.89818798186	-0.379897159868453	0.00054485205921145	58.044207450234	1593.04929577465	6	4	0	1	0	1	1
79.0299674781859	2.5187445718944	reward_rtpj	81.5487120500803	13	1	3	10	750	250	250	250	0	0	0	0	2000	0	BLOCKED	0.75	-1	8	-1	interested	At this moment	5	2	8	214	RTPJ	873.891241014004	0.374531835205993	n/a	n/a	n/a	n/a	2903.20758483034	0.33358954650269	n/a	n/a	n/a	n/a	2693.79123414072	2	1	1	0	0	0	0
82.5496052280366	2.53533201149106	reward_rtpj	85.0849372395277	14	1	3	10	750	250	250	250	0	0	0	0	2000	0	BLOCKED	0.75	1	7	1	enthusiastic	At this moment	2	2	8	214	RTPJ	342.913339853287	0.459425717852684	n/a	n/a	n/a	n/a	2186.66512702079	0.289008455034589	n/a	n/a	n/a	n/a	2012.35243243243	3	2	1	0	0	0	0
86.0857725883424	2.51874880331755	reward_rtpj	88.60452139166	15	1	3	10	750	250	250	250	0	0	0	0	2000	0	BLOCKED	0.75	1	8	1	scared	At this moment	1	2	8	214	RTPJ	506.829655498266	0.406991260923845	n/a	n/a	n/a	n/a	1768.19368421053	0.265949269792467	n/a	n/a	n/a	n/a	1619.99057591623	2	3	1	0	0	0	0
89.5886779732108	2.51875550299883	reward_rtpj	92.1074334762096	16	1	3	10	750	250	250	250	0	0	0	0	2000	0	BLOCKED	0.75	1	6	1	upset	At this moment	2	2	8	214	RTPJ	439.69003584981	0.318352059925094	n/a	n/a	n/a	n/a	1427.00549450549	0.491160645657187	n/a	n/a	n/a	n/a	1152.09365558912	2	4	1	0	0	0	0
93.1084278551638	2.51858166301251	reward_rtpj	95.6270095181763	17	1	3	10	750	250	250	250	0	0	0	0	2000	0	BLOCKED	0.75	1	10	1	active	At this moment	5	2	8	214	RTPJ	590.510169297457	0.611735330836454	n/a	n/a	n/a	n/a	1451.69131832797	0.497309761721753	n/a	n/a	n/a	n/a	1220.36697247706	4	5	1	0	0	0	0
96.6276967680156	2.51870120006799	reward_rtpj	99.1463979680836	18	1	3	10	750	250	250	250	0	0	0	0	2000	0	BLOCKED	0.75	1	6	1	strong	At this moment	2	2	8	214	RTPJ	473.240451782942	0.560549313358302	n/a	n/a	n/a	n/a	1350.74431818182	0.629515757109915	n/a	n/a	n/a	n/a	1323.14107883817	2	6	1	0	0	0	0
100.147206518024	2.51873681434989	reward_rtpj	102.665943332374	19	1	3	10	750	250	250	250	0	0	0	0	2000	0	BLOCKED	0.75	1	6	1	hostile	At this moment	1	2	8	214	RTPJ	657.398020654917	0.553058676654182	n/a	n/a	n/a	n/a	1547.48324022346	0.196003074558032	759.688917976435	-0.182895585720091	0.000287894114855134	15.4552991651533	803.682600382409	3	7	1	0	0	0	0
103.650169379413	2.51859047845007	reward_rtpj	106.168759857863	20	1	3	10	750	250	250	250	0	0	0	0	2000	0	BLOCKED	0.75	1	2	-1	enthusiastic	At this moment	5	2	8	214	RTPJ	490.322259873152	0.204744069912609	-5259.12256856094	8.09221352241235	-0.00224889867563498	24.0411387640302	1837.96703296703	0.284396617986165	n/a	n/a	n/a	n/a	1339.62620837809	3	8	1	0	0	0	0
107.169687592238	6.02150115251541	panas_none	113.191188744754	21	5	4	10	n/a	n/a	n/a	n/a	n/a	n/a	n/a	n/a	2000	0	BLOCKED	n/a	n/a	+	0	attentive	At this moment	2	2	8	214	NONE	n/a	0.113607990012484	3278.89758087762	-2.29068255789057	0.000600803442286398	15.7774271957094	1134.34647887324	0	1999.28966689027	-0.52338095111988	0.000187676497560379	126.038450024746	1720.51652574942	4	1	0	1	0	1	0
114.191993415922	6.02153923514486	panas_none	120.213532651067	22	5	4	10	n/a	n/a	n/a	n/a	n/a	n/a	n/a	n/a	2000	0	BLOCKED	n/a	n/a	+	0	nervous	At this moment	1	2	8	214	NONE	n/a	0.757802746566791	n/a	n/a	n/a	n/a	1000.13402061856	0.746348962336664	n/a	n/a	n/a	n/a	1285.82121212121	8	2	0	1	0	1	0
121.214362710655	6.02150573652982	panas_none	127.235868447185	23	5	4	10	n/a	n/a	n/a	n/a	n/a	n/a	n/a	n/a	2000	0	BLOCKED	n/a	n/a	+	0	interested	At this moment	1	2	8	214	NONE	n/a	0	6212.00419044988	-4.78920996200514	0.00104248900187991	12.9319541829832	806.822721598003	0.890853189853958	n/a	n/a	n/a	n/a	1266.31690140845	4	3	0	1	0	1	0
128.236714727163	5.65458766594531	panas_none	133.891302393109	24	5	4	10	n/a	n/a	n/a	n/a	n/a	n/a	n/a	n/a	2000	0	BLOCKED	n/a	n/a	+	0	excited	At this moment	4	2	8	214	NONE	n/a	0.390761548064919	n/a	n/a	n/a	n/a	2449.51844262295	0.270561106840892	n/a	n/a	n/a	n/a	2131.54794520548	6	4	0	1	0	1	0
134.892015031368	2.51879675915836	reward_vlpfc	137.410811790526	25	2	5	10	0	0	0	0	250	250	250	750	2000	0	BLOCKED	0.75	1	6	1	upset	At this moment	1	2	8	214	VLPFC	456.251734405756	0.705368289637953	n/a	n/a	n/a	n/a	1567.91101694915	0.339738662567256	n/a	n/a	n/a	n/a	1603.99883585565	2	1	1	0	0	0	0
138.394928878993	2.51875938180089	reward_vlpfc	140.913688260794	26	2	5	10	0	0	0	0	250	250	250	750	2000	0	BLOCKED	0.75	1	7	1	afraid	At this moment	2	2	8	214	VLPFC	372.900211930275	1	n/a	n/a	n/a	n/a	n/a	0.603382013835511	n/a	n/a	n/a	n/a	1341.87209302326	3	2	1	0	0	0	0
141.914653372526	2.51858377873896	reward_vlpfc	144.433237151265	27	2	5	10	0	0	0	0	250	250	250	750	2000	0	BLOCKED	0.75	1	1	-1	interested	At this moment	2	2	8	214	VLPFC	506.193182468414	0	2034.95962311359	-0.00692340905712456	-8.14502540880446e-05	44.4502418812702	1656.67415730337	0.779400461183705	n/a	n/a	n/a	n/a	1367.66550522648	5	3	1	0	0	0	0
145.433994571805	2.51872094660999	reward_vlpfc	147.952715518415	28	2	5	10	0	0	0	0	250	250	250	750	2000	0	BLOCKED	0.75	-1	7	-1	inspired	At this moment	2	2	8	214	VLPFC	441.314540743828	0.820224719101124	n/a	n/a	n/a	n/a	1575.95138888889	0.361260568793236	n/a	n/a	n/a	n/a	1605.35258724428	2	4	1	0	0	0	0
148.953446492732	2.51903160181644	reward_vlpfc	151.472478094548	29	2	5	10	0	0	0	0	250	250	250	750	2000	0	BLOCKED	0.75	1	6	1	determined	At this moment	2	2	8	214	VLPFC	407.684080868959	0.533083645443196	n/a	n/a	n/a	n/a	2451.64438502674	0.230591852421214	2153.01429499641	0.0895118253121846	0.00018751289873145	41.4419145898712	2368.14885114885	2	5	1	0	0	0	0
152.456429453224	2.51874351406099	reward_vlpfc	154.975172967285	30	2	5	10	0	0	0	0	250	250	250	750	2000	0	BLOCKED	0.75	1	7	1	guilty	At this moment	2	2	8	214	VLPFC	473.101873397827	0.585518102372035	n/a	n/a	n/a	n/a	2173.20481927711	0.242890084550346	2190.38775660885	0.268729618173755	-0.000121426586658559	54.1837385819003	2198.88020304569	3	6	1	0	0	0	0
155.965237288088	2.51269684383274	reward_vlpfc	158.47793413192	31	2	5	10	0	0	0	0	250	250	250	750	2000	0	BLOCKED	0.75	1	6	1	attentive	At this moment	2	2	8	214	VLPFC	350.258344590664	0.424469413233458	n/a	n/a	n/a	n/a	1271.92407809111	0.733282090699462	n/a	n/a	n/a	n/a	1751.1325648415	4	7	1	0	0	0	0
159.462135495752	2.518636318624	reward_vlpfc	161.980771814376	32	2	5	10	0	0	0	0	250	250	250	750	2000	0	BLOCKED	0.75	1	10	1	upset	At this moment	1	2	8	214	VLPFC	489.523583173752	0.726591760299625	n/a	n/a	n/a	n/a	1468.13242009132	0.281322059953882	n/a	n/a	n/a	n/a	1320.27165775401	4	8	1	0	0	0	0
162.983326521963	6.01982657608389	panas_none	169.003153098047	33	5	6	10	n/a	n/a	n/a	n/a	n/a	n/a	n/a	n/a	2000	0	BLOCKED	n/a	n/a	+	0	jittery	At this moment	1	2	8	214	NONE	n/a	0.458177278401998	n/a	n/a	n/a	n/a	931.108294930876	0	1376.63538853014	0.193165017649177	-0.000128243286366615	78.1973392970921	1428.69869331284	11	1	0	1	0	1	1
170.003885130197	6.02176914119721	panas_none	176.025654271394	34	5	6	10	n/a	n/a	n/a	n/a	n/a	n/a	n/a	n/a	2000	0	BLOCKED	n/a	n/a	+	0	proud	At this moment	3	2	8	214	NONE	n/a	0.383270911360799	n/a	n/a	n/a	n/a	1059.56477732794	0.901614142966949	n/a	n/a	n/a	n/a	791.5546875	9	2	0	1	0	1	1
177.026357036352	6.02153570896388	panas_none	183.047892745316	35	5	6	10	n/a	n/a	n/a	n/a	n/a	n/a	n/a	n/a	2000	0	BLOCKED	n/a	n/a	+	0	scared	At this moment	1	2	8	214	NONE	n/a	0	6077.08395360754	-3.55967973968739	0.000664269363559744	18.2458866964407	1564.42571785268	0.577248270561107	n/a	n/a	n/a	n/a	1555.21272727273	6	3	0	1	0	1	1
184.048634650737	7.02253044050931	panas_none	191.071165091246	36	5	6	10	n/a	n/a	n/a	n/a	n/a	n/a	n/a	n/a	2000	0	BLOCKED	n/a	n/a	+	0	inspired	At this moment	1	2	8	214	NONE	n/a	0.215980024968789	3096.00609546496	0.0631408164508008	-1.54890002563213e-05	18.6601658251424	3159.43630573248	0.219830899308224	1193.1106475833	3.55081428776218	-0.00148317250385351	67.5583037698226	3117.85615763547	5	4	0	1	0	1	1
192.055213419437	2.51874316146967	punish_rtpj	194.573956580907	37	3	7	10	750	250	250	250	0	0	0	0	2000	0	BLOCKED	0.25	1	3	-1	determined	At this moment	4	2	8	214	RTPJ	1007.25614532828	0.6729088639201	n/a	n/a	n/a	n/a	1154.88167938931	0.862413528055342	n/a	n/a	n/a	n/a	1526.25139664804	3	1	0	0	1	0	0
195.558020776898	2.51889055517316	punish_rtpj	198.076911332071	38	3	7	10	750	250	250	250	0	0	0	0	2000	0	BLOCKED	0.25	-1	1	1	afraid	At this moment	3	2	8	214	RTPJ	556.896987617016	0.374531835205993	n/a	n/a	n/a	n/a	1294.42315369261	0.737125288239815	n/a	n/a	n/a	n/a	1409.94736842105	1	2	0	0	1	0	0
199.077568609506	2.51873364078997	punish_rtpj	201.596302250296	39	3	7	10	750	250	250	250	0	0	0	0	2000	0	BLOCKED	0.25	-1	9	-1	proud	At this moment	5	2	8	214	RTPJ	373.242250114679	0.624219725343321	n/a	n/a	n/a	n/a	2160.62126245847	0.318985395849347	n/a	n/a	n/a	n/a	2020.75169300226	2	3	0	0	1	0	0
202.580455305666	2.51866135436296	punish_rtpj	205.099116660029	40	3	7	10	750	250	250	250	0	0	0	0	2000	0	BLOCKED	0.25	1	1	-1	scared	At this moment	3	2	8	214	RTPJ	489.809202671051	1	n/a	n/a	n/a	n/a	n/a	0.900076863950807	n/a	n/a	n/a	n/a	1418.26153846154	1	4	0	0	1	0	0
206.083192139745	2.51893145874141	punish_rtpj	208.602123598486	41	3	7	10	750	250	250	250	0	0	0	0	2000	0	BLOCKED	0.25	1	10	1	irritable	At this moment	3	2	8	214	RTPJ	1489.887483567	1	n/a	n/a	n/a	n/a	n/a	1	n/a	n/a	n/a	n/a	n/a	1	5	0	0	1	0	0
209.602923333019	2.51859717816114	punish_rtpj	212.12152051118	42	3	7	10	750	250	250	250	0	0	0	0	2000	0	BLOCKED	0.25	1	1	-1	strong	At this moment	1	2	8	214	RTPJ	990.324199289083	0.299625468164794	n/a	n/a	n/a	n/a	2502.55080213904	0.305149884704074	n/a	n/a	n/a	n/a	2143.50774336283	2	6	0	0	1	0	0
213.122333645165	2.51876079228521	punish_rtpj	215.64109443745	43	3	7	10	750	250	250	250	0	0	0	0	2000	0	BLOCKED	0.25	-1	9	-1	afraid	At this moment	2	2	8	214	RTPJ	289.581482827663	1	n/a	n/a	n/a	n/a	n/a	1	n/a	n/a	n/a	n/a	n/a	2	7	0	0	1	0	0
216.625103977829	2.51865007063748	punish_rtpj	219.143754048467	44	3	7	10	750	250	250	250	0	0	0	0	2000	0	BLOCKED	0.25	1	3	-1	active	At this moment	4	2	8	214	RTPJ	256.613237023354	1	n/a	n/a	n/a	n/a	n/a	1	n/a	n/a	n/a	n/a	n/a	2	8	0	0	1	0	0
220.145077771366	6.02115558820964	panas_none	226.166233359575	45	5	8	10	n/a	n/a	n/a	n/a	n/a	n/a	n/a	n/a	2000	0	BLOCKED	n/a	n/a	+	0	proud	At this moment	3	2	8	214	NONE	n/a	0.207240948813983	13249.9198887417	-11.9424041370577	0.00284072179447118	31.4583535795268	814.114960629921	0.961568024596464	n/a	n/a	n/a	n/a	1359.08	3	1	0	1	0	0	0
227.167188950688	6.02141264575718	panas_none	233.188601596445	46	5	8	10	n/a	n/a	n/a	n/a	n/a	n/a	n/a	n/a	2000	0	BLOCKED	n/a	n/a	+	0	strong	At this moment	2	2	8	214	NONE	n/a	0.662921348314607	n/a	n/a	n/a	n/a	2002.62592592593	0.128362797847809	3041.33574661676	-1.77023565738775	0.000823761918109345	112.406220373625	2130.00264550265	4	2	0	1	0	0	0
234.189452460408	6.02153077232839	panas_none	240.210983232737	47	5	8	10	n/a	n/a	n/a	n/a	n/a	n/a	n/a	n/a	2000	0	BLOCKED	n/a	n/a	+	0	scared	At this moment	1	2	8	214	NONE	n/a	1	n/a	n/a	n/a	n/a	n/a	0.86010760953113	n/a	n/a	n/a	n/a	1060.17582417582	7	3	0	1	0	0	0
241.211668014258	6.73894203016161	panas_none	247.95061004442	48	5	8	10	n/a	n/a	n/a	n/a	n/a	n/a	n/a	n/a	2000	0	BLOCKED	n/a	n/a	+	0	distressed	At this moment	1	2	8	214	NONE	n/a	0.586766541822722	n/a	n/a	n/a	n/a	1100.80060422961	0.850883935434281	n/a	n/a	n/a	n/a	1048.44845360825	9	4	0	1	0	0	0
248.951445745885	2.51869908434153	punish_rtpj	251.470144830227	49	3	9	10	750	250	250	250	0	0	0	0	2000	0	BLOCKED	0.25	1	9	1	upset	At this moment	4	2	8	214	RTPJ	540.694605410099	0.611735330836454	n/a	n/a	n/a	n/a	1665.46623794212	0.534973097617218	n/a	n/a	n/a	n/a	1482.46611570248	5	1	0	0	1	0	0
252.470890261829	2.51876678672431	punish_rtpj	254.989657048553	50	3	9	10	750	250	250	250	0	0	0	0	2000	0	BLOCKED	0.25	1	1	-1	excited	At this moment	2	2	8	214	RTPJ	1406.95381179452	1	n/a	n/a	n/a	n/a	n/a	1	n/a	n/a	n/a	n/a	n/a	0	2	0	0	1	0	0
255.973864054292	2.51871706780793	punish_rtpj	258.4925811221	51	3	9	10	750	250	250	250	0	0	0	0	2000	0	BLOCKED	0.25	-1	7	-1	attentive	At this moment	2	2	8	214	RTPJ	740.212860554457	1	n/a	n/a	n/a	n/a	n/a	1	n/a	n/a	n/a	n/a	n/a	0	3	0	0	1	0	0
259.476582904935	2.51876643416284	punish_rtpj	261.995349339098	52	3	9	10	750	250	250	250	0	0	0	0	2000	0	BLOCKED	0.25	1	8	1	inspired	At this moment	3	2	8	214	RTPJ	656.861338078976	1	n/a	n/a	n/a	n/a	n/a	1	n/a	n/a	n/a	n/a	n/a	2	4	0	0	1	0	0
262.996073966295	2.51892017498608	punish_rtpj	265.514994141281	53	3	9	10	750	250	250	250	0	0	0	0	2000	0	BLOCKED	0.25	1	4	-1	scared	At this moment	4	2	8	214	RTPJ	322.907987117767	0.67665418227216	n/a	n/a	n/a	n/a	1628.8416988417	0	1497.06283847133	-0.742653087483298	0.000705241165789454	68.372980113369	1465.66410453497	1	5	0	0	1	0	0
266.515786823481	2.5185978833735	punish_rtpj	269.034384706855	54	3	9	10	750	250	250	250	0	0	0	0	2000	0	BLOCKED	0.25	-1	9	-1	enthusiastic	At this moment	5	2	8	214	RTPJ	923.221957027912	0.629213483146067	n/a	n/a	n/a	n/a	2448.3468013468	0	1910.74309124864	0.202377433773622	0.000193003957496668	25.9596197310635	2249.83243658724	2	6	0	0	1	0	0
270.035210887671	2.51875761872526	punish_rtpj	272.553968506396	55	3	9	10	750	250	250	250	0	0	0	0	2000	0	BLOCKED	0.25	1	3	-1	determined	At this moment	3	2	8	214	RTPJ	740.318292945623	0.525593008739076	n/a	n/a	n/a	n/a	2615.71578947368	0.235203689469639	1869.9187405445	2.4212707133795	-0.00150954901796511	83.0115403203542	2654.06834170854	3	7	0	0	1	0	0
273.554657519311	2.5187029631436	punish_rtpj	276.073360482454	56	3	9	10	750	250	250	250	0	0	0	0	2000	0	BLOCKED	0.25	1	0	-1	jittery	At this moment	4	2	8	214	RTPJ	774.631066024303	0.580524344569288	n/a	n/a	n/a	n/a	2601.48214285714	0	2417.6888880061	-1.4940834656629	0.00101974278414892	58.6428224901078	1998.04996156802	3	8	0	0	1	0	0
277.074252249956	6.02155298715826	panas_none	283.095805237114	57	5	10	10	n/a	n/a	n/a	n/a	n/a	n/a	n/a	n/a	2000	0	BLOCKED	n/a	n/a	+	0	active	At this moment	2	2	8	214	NONE	n/a	1	n/a	n/a	n/a	n/a	n/a	1	n/a	n/a	n/a	n/a	n/a	5	1	0	1	0	0	0
284.096508707345	6.02171836438777	panas_none	290.118227071732	58	5	10	10	n/a	n/a	n/a	n/a	n/a	n/a	n/a	n/a	2000	0	BLOCKED	n/a	n/a	+	0	ashamed	At this moment	1	2	8	214	NONE	n/a	0.275905118601748	n/a	n/a	n/a	n/a	1973.8275862069	0.252882398155265	n/a	n/a	n/a	n/a	1390.22119341564	4	2	0	1	0	0	0
291.118959456503	6.0215903645456	panas_none	297.140549821049	59	5	10	10	n/a	n/a	n/a	n/a	n/a	n/a	n/a	n/a	2000	0	BLOCKED	n/a	n/a	+	0	afraid	At this moment	1	2	8	214	NONE	n/a	0.480649188514357	n/a	n/a	n/a	n/a	2475.77884615385	0.176787086856264	2891.49168969407	-0.304026990844826	-1.9173458044604e-06	96.189242421791	2523.59663865546	5	3	0	1	0	0	0
298.141256464779	9.87479076611999	panas_none	308.016047230899	60	5	10	10	n/a	n/a	n/a	n/a	n/a	n/a	n/a	n/a	2000	0	BLOCKED	n/a	n/a	+	0	interested	At this moment	1	2	8	214	NONE	n/a	1	n/a	n/a	n/a	n/a	n/a	1	n/a	n/a	n/a	n/a	n/a	7	4	0	1	0	0	0
309.016757753432	2.5188732769787	punish_vlpfc	311.535631030411	61	4	11	10	0	0	0	0	250	250	250	750	2000	0	BLOCKED	0.25	1	1	-1	scared	At this moment	2	2	8	214	VLPFC	544.106876701117	0.443196004993758	n/a	n/a	n/a	n/a	1951.94170403587	0.26902382782475	n/a	n/a	n/a	n/a	2020.77917981073	3	1	0	0	1	0	0
312.536394445449	2.51876854982976	punish_vlpfc	315.055162995279	62	4	11	10	0	0	0	0	250	250	250	750	2000	0	BLOCKED	0.25	-1	9	-1	inspired	At this moment	4	2	8	214	VLPFC	322.918213039637	0.671660424469413	n/a	n/a	n/a	n/a	1954.69581749049	0	1401.61211035971	1.38816096203026	-0.000440081544948812	39.8565613721433	2267.09223674097	1	2	0	0	1	0	0
316.055925705075	2.51870860502123	punish_vlpfc	318.574634310096	63	4	11	10	0	0	0	0	250	250	250	750	2000	0	BLOCKED	0.25	1	1	-1	alert	At this moment	1	2	8	214	VLPFC	239.439395964146	0.799001248439451	n/a	n/a	n/a	n/a	2005.07453416149	0.400461183704842	n/a	n/a	n/a	n/a	1998.39358974359	2	3	0	0	1	0	0
319.575372689337	2.51868639016152	punish_vlpfc	322.094059079498	64	4	11	10	0	0	0	0	250	250	250	750	2000	0	BLOCKED	0.25	1	9	1	strong	At this moment	2	2	8	214	VLPFC	372.703099280596	0.602996254681648	n/a	n/a	n/a	n/a	1737.16981132075	0.720983858570331	n/a	n/a	n/a	n/a	1645.04132231405	2	4	0	0	1	0	0
323.094997745037	2.5188076902628	punish_vlpfc	325.6138054353	65	4	11	10	0	0	0	0	250	250	250	750	2000	0	BLOCKED	0.25	1	0	-1	scared	At this moment	4	2	8	214	VLPFC	556.502762198448	1	n/a	n/a	n/a	n/a	n/a	1	n/a	n/a	n/a	n/a	n/a	4	5	0	0	1	0	0
326.614494800866	2.5187396352589	punish_vlpfc	329.133234436125	66	4	11	10	0	0	0	0	250	250	250	750	2000	0	BLOCKED	0.25	1	0	-1	interested	At this moment	3	2	8	214	VLPFC	456.701320648193	1	n/a	n/a	n/a	n/a	n/a	1	n/a	n/a	n/a	n/a	n/a	2	6	0	0	1	0	0
330.117206246525	2.51878794375062	punish_vlpfc	332.635994190276	67	4	11	10	0	0	0	0	250	250	250	750	2000	0	BLOCKED	0.25	1	9	1	upset	At this moment	1	2	8	214	VLPFC	540.012997448444	1	n/a	n/a	n/a	n/a	n/a	1	n/a	n/a	n/a	n/a	n/a	4	7	0	0	1	0	0
333.620453316927	2.51857602110505	punish_vlpfc	336.139029338032	68	4	11	10	0	0	0	0	250	250	250	750	2000	0	BLOCKED	0.25	1	4	-1	hostile	At this moment	1	2	8	214	VLPFC	590.150147676468	1	n/a	n/a	n/a	n/a	n/a	1	n/a	n/a	n/a	n/a	n/a	0	8	0	0	1	0	0
337.139692962557	6.02152759879829	panas_none	343.161220561355	69	5	12	10	n/a	n/a	n/a	n/a	n/a	n/a	n/a	n/a	2000	0	BLOCKED	n/a	n/a	+	0	strong	At this moment	1	2	8	214	NONE	n/a	1	n/a	n/a	n/a	n/a	n/a	1	n/a	n/a	n/a	n/a	n/a	5	1	0	1	0	0	1
344.145271357894	6.02167569777373	panas_none	350.166947055668	70	5	12	10	n/a	n/a	n/a	n/a	n/a	n/a	n/a	n/a	2000	0	BLOCKED	n/a	n/a	+	0	inspired	At this moment	2	2	8	214	NONE	n/a	0.368289637952559	n/a	n/a	n/a	n/a	2066.84584980237	0.787855495772483	n/a	n/a	n/a	n/a	2244.8115942029	5	2	0	1	0	0	1
351.167810966462	6.02148457953331	panas_none	357.189295545995	71	5	12	10	n/a	n/a	n/a	n/a	n/a	n/a	n/a	n/a	2000	0	BLOCKED	n/a	n/a	+	0	active	At this moment	1	2	8	214	NONE	n/a	0	9259.48166600182	-6.69763059999032	0.00160306036648507	26.0560544457707	2349.25218476904	0	2492.91878693214	-0.822143955944136	0.000645359866876806	76.0797440104786	2355.20676402767	4	3	0	1	0	0	1
358.190275115043	12.5433684974313	panas_none	370.733643612474	72	5	12	10	n/a	n/a	n/a	n/a	n/a	n/a	n/a	n/a	2000	0	BLOCKED	n/a	n/a	+	0	ashamed	At this moment	5	2	8	214	NONE	n/a	0.901373283395755	n/a	n/a	n/a	n/a	630.46835443038	0.41967717140661	n/a	n/a	n/a	n/a	1268.53245033113	8	4	0	1	0	0	1
371.717859433621	2.51862397700546	punish_vlpfc	374.236483410627	73	4	13	10	0	0	0	0	250	250	250	750	2000	0	BLOCKED	0.25	1	0	-1	jittery	At this moment	4	2	8	214	VLPFC	806.709660023451	0.480649188514357	n/a	n/a	n/a	n/a	2212.02403846154	0.327440430438125	n/a	n/a	n/a	n/a	1967.85142857143	2	1	0	0	1	0	0
375.220518692046	2.51881544783708	punish_vlpfc	377.739334139884	74	4	13	10	0	0	0	0	250	250	250	750	2000	0	BLOCKED	0.25	1	4	-1	excited	At this moment	3	2	8	214	VLPFC	474.040538907051	0.897627965043695	n/a	n/a	n/a	n/a	1598.5243902439	0.678708685626441	n/a	n/a	n/a	n/a	1269.54784688995	5	2	0	0	1	0	0
378.740107075572	2.51875973442196	punish_vlpfc	381.258866809994	75	4	13	10	0	0	0	0	250	250	250	750	2000	0	BLOCKED	0.25	1	7	1	inspired	At this moment	2	2	8	214	VLPFC	323.726057767868	1	n/a	n/a	n/a	n/a	n/a	1	n/a	n/a	n/a	n/a	n/a	1	3	0	0	1	0	0
382.243040669769	2.51871107330913	punish_vlpfc	384.761751743078	76	4	13	10	0	0	0	0	250	250	250	750	2000	0	BLOCKED	0.25	-1	6	-1	enthusiastic	At this moment	4	2	8	214	VLPFC	506.372311681509	1	n/a	n/a	n/a	n/a	n/a	1	n/a	n/a	n/a	n/a	n/a	1	4	0	0	1	0	0
385.762522210449	2.51870578408239	punish_vlpfc	388.281227994531	77	4	13	10	0	0	0	0	250	250	250	750	2000	0	BLOCKED	0.25	1	6	1	scared	At this moment	5	2	8	214	VLPFC	1488.87476855516	1	n/a	n/a	n/a	n/a	n/a	1	n/a	n/a	n/a	n/a	n/a	0	5	0	0	1	0	0
389.265299242824	2.51875515040757	punish_vlpfc	391.784054393232	78	4	13	10	0	0	0	0	250	250	250	750	2000	0	BLOCKED	0.25	1	0	-1	alert	At this moment	3	2	8	214	VLPFC	1490.41570329666	0.519350811485643	n/a	n/a	n/a	n/a	1737.04675324675	0.443504996156802	n/a	n/a	n/a	n/a	1119.51243093923	3	6	0	0	1	0	0
392.785140452504	2.51851819202307	punish_vlpfc	395.303658644527	79	4	13	10	0	0	0	0	250	250	250	750	2000	0	BLOCKED	0.25	1	0	-1	nervous	At this moment	1	2	8	214	VLPFC	506.362438410521	0.727840199750312	n/a	n/a	n/a	n/a	1978.81651376147	0.368178324365872	n/a	n/a	n/a	n/a	1600.9197080292	4	7	0	0	1	0	0
396.304388913572	2.51924916633965	punish_vlpfc	398.823638079911	80	4	13	10	0	0	0	0	250	250	250	750	2000	0	BLOCKED	0.25	-1	6	-1	jittery	At this moment	3	2	8	214	VLPFC	442.476765245199	1	n/a	n/a	n/a	n/a	n/a	1	n/a	n/a	n/a	n/a	n/a	4	8	0	0	1	0	0
399.823824614137	6.03831602984667	panas_none	405.862140643984	81	5	14	10	n/a	n/a	n/a	n/a	n/a	n/a	n/a	n/a	2000	0	BLOCKED	n/a	n/a	+	0	inspired	At this moment	1	2	8	214	NONE	n/a	1	n/a	n/a	n/a	n/a	n/a	1	n/a	n/a	n/a	n/a	n/a	3	1	0	1	0	0	1
406.846297225505	6.02153218278289	panas_none	412.867829408288	82	5	14	10	n/a	n/a	n/a	n/a	n/a	n/a	n/a	n/a	2000	0	BLOCKED	n/a	n/a	+	0	afraid	At this moment	1	2	8	214	NONE	n/a	1	n/a	n/a	n/a	n/a	n/a	0.69946195234435	n/a	n/a	n/a	n/a	1326.81841432225	4	2	0	1	0	0	1
413.868688735068	6.02153817725178	panas_none	419.89022691232	83	5	14	10	n/a	n/a	n/a	n/a	n/a	n/a	n/a	n/a	2000	0	BLOCKED	n/a	n/a	+	0	attentive	At this moment	1	2	8	214	NONE	n/a	0	11478.7017969896	-9.02636711112622	0.00204639619666898	78.5348524899398	1656.41697877653	0.328209069946195	n/a	n/a	n/a	n/a	2111.12128146453	8	3	0	1	0	0	1
420.890989622146	5.87155339267855	panas_none	426.762543014824	84	5	14	10	n/a	n/a	n/a	n/a	n/a	n/a	n/a	n/a	2000	0	BLOCKED	n/a	n/a	+	0	nervous	At this moment	5	2	8	214	NONE	n/a	1	n/a	n/a	n/a	n/a	n/a	1	n/a	n/a	n/a	n/a	n/a	2	4	0	1	0	0	1
427.746627662569	2.5189050124884	reward_rtpj	430.265532675058	85	1	15	10	750	250	250	250	0	0	0	0	2000	0	BLOCKED	0.75	1	10	1	determined	At this moment	4	2	8	214	RTPJ	523.209756493568	1	n/a	n/a	n/a	n/a	n/a	0.31206764027671	n/a	n/a	n/a	n/a	2087.25139664804	2	1	1	0	0	0	0
431.249439603984	2.53540324008463	reward_rtpj	433.784842844069	86	1	15	10	750	250	250	250	0	0	0	0	2000	0	BLOCKED	0.75	1	10	1	active	At this moment	1	2	8	214	RTPJ	810.417071461678	1	n/a	n/a	n/a	n/a	n/a	1	n/a	n/a	n/a	n/a	n/a	2	2	1	0	0	0	0
434.785776572943	2.51856967404484	reward_rtpj	437.304346246988	87	1	15	10	750	250	250	250	0	0	0	0	2000	0	BLOCKED	0.75	1	8	1	ashamed	At this moment	4	2	8	214	RTPJ	1488.54330888391	1	n/a	n/a	n/a	n/a	n/a	1	n/a	n/a	n/a	n/a	n/a	0	3	1	0	0	0	0
438.288495070964	2.51870155265931	reward_rtpj	440.807196623623	88	1	15	10	750	250	250	250	0	0	0	0	2000	0	BLOCKED	0.75	1	2	-1	attentive	At this moment	4	2	8	214	RTPJ	1440.74647533894	0.811485642946317	n/a	n/a	n/a	n/a	1338.81456953642	0.215987701767871	2388.33827068198	-2.35404817209657	0.000943320592253781	41.9161725037774	1063.58725490196	4	4	1	0	0	0	0
441.812242567837	2.5146799598038	reward_rtpj	444.326922527641	89	1	15	10	750	250	250	250	0	0	0	0	2000	0	BLOCKED	0.75	-1	6	-1	nervous	At this moment	5	2	8	214	RTPJ	1287.37762877345	0.606741573033708	n/a	n/a	n/a	n/a	1925.51428571429	0.421983089930822	n/a	n/a	n/a	n/a	1745.71010638298	3	5	1	0	0	0	0
445.327445810765	2.5355813114345	reward_rtpj	447.8630271222	90	1	15	10	750	250	250	250	0	0	0	0	2000	0	BLOCKED	0.75	-1	2	1	upset	At this moment	2	2	8	214	RTPJ	623.935758858919	1	n/a	n/a	n/a	n/a	n/a	1	n/a	n/a	n/a	n/a	n/a	1	6	1	0	0	0	0
448.868344933838	2.51419616979359	reward_rtpj	451.382541103631	91	1	15	10	750	250	250	250	0	0	0	0	2000	0	BLOCKED	0.75	1	7	1	jittery	At this moment	4	2	8	214	RTPJ	1484.14617934823	0.398252184769039	n/a	n/a	n/a	n/a	907.186721991701	0.856264411990776	n/a	n/a	n/a	n/a	1371.80213903743	1	7	1	0	0	0	0
452.38329499802	2.51865571251511	reward_rtpj	454.901950710535	92	1	15	10	750	250	250	250	0	0	0	0	2000	0	BLOCKED	0.75	1	8	1	strong	At this moment	3	2	8	214	RTPJ	406.53913462162	0.729088639200999	n/a	n/a	n/a	n/a	1900.45622119816	0.425826287471176	n/a	n/a	n/a	n/a	1584.08969210174	2	8	1	0	0	0	0
455.902701784015	6.02167040851714	panas_none	461.924372192532	93	5	16	10	n/a	n/a	n/a	n/a	n/a	n/a	n/a	n/a	2000	0	BLOCKED	n/a	n/a	+	0	hostile	At this moment	1	2	8	214	NONE	n/a	0.414481897627965	n/a	n/a	n/a	n/a	1274.71855010661	0	1182.96757234228	1.35188585513829	-0.000843097701333181	102.670043018351	1606.8186010761	2	1	0	1	0	1	0
462.925214593679	6.02168698149916	panas_none	468.946901575178	94	5	16	10	n/a	n/a	n/a	n/a	n/a	n/a	n/a	n/a	2000	0	BLOCKED	n/a	n/a	+	0	afraid	At this moment	1	2	8	214	NONE	n/a	1	n/a	n/a	n/a	n/a	n/a	1	n/a	n/a	n/a	n/a	n/a	1	2	0	1	0	1	0
469.947689673394	6.02140947219732	panas_none	475.969099145591	95	5	16	10	n/a	n/a	n/a	n/a	n/a	n/a	n/a	n/a	2000	0	BLOCKED	n/a	n/a	+	0	enthusiastic	At this moment	2	2	8	214	NONE	n/a	0.370786516853933	n/a	n/a	n/a	n/a	2597.93650793651	0.245196003074558	1562.42210734496	0.060529013356	0.000448838027879861	36.3432505629999	1977.66293279022	5	3	0	1	0	1	0
476.969899937958	11.3425832907259	panas_none	488.312483228683	96	5	16	10	n/a	n/a	n/a	n/a	n/a	n/a	n/a	n/a	2000	0	BLOCKED	n/a	n/a	+	0	irritable	At this moment	1	2	8	214	NONE	n/a	1	n/a	n/a	n/a	n/a	n/a	1	n/a	n/a	n/a	n/a	n/a	11	4	0	1	0	1	0
