onset	duration	trial_type	offset	trial	block	blockCntr	frequency	amplitude_1	amplitude_2	amplitude_3	amplitude_4	amplitude_5	amplitude_6	amplitude_7	amplitude_8	transition	sham	mode	rewardFraction	guess	outcome	correct	word	when	answer	runNr	scanNr	subjectNr	target	reactionTime	outcomeEyeClosed	outcomeParms_1	outcomeParms_2	outcomeParms_3	outcomeSigma	outcomePupilArea	guessEyeClosed	guessParms_1	guessParms_2	guessParms_3	guessSigma	guessPupilArea	nrBlinks	trialInBlock	isReward	isPanas	isPunish	beforePanasReward	beforePanasVLPFC
20.6244365622997	2.65864815855026	punish_vlpfc	23.28308472085	1	4	1	10	0	0	0	0	250	250	250	750	2000	0	BLOCKED	0.25	-1	9	-1	alert	At this moment	4	1	5	226	VLPFC	1594.59353661537	0	3099.85143656928	-1.17098478832562	0.000257340732344651	17.9471630468109	1789.48314606742	0	1428.43273321127	0.544848712467437	-0.000126616948545952	21.1920843066355	1781.55572636434	0	1	0	0	1	0	0
24.2960744218826	2.53980075025558	punish_vlpfc	26.8358751721382	2	4	1	10	0	0	0	0	250	250	250	750	2000	0	BLOCKED	0.25	1	0	-1	guilty	At this moment	4	1	5	226	VLPFC	1495.7067129612	0	3371.85991666345	-1.28512920844101	0.000275750492529718	25.055958322521	1904.08239700375	0	1277.69039300746	0.497406808406852	1.26407262217801e-06	31.1079913239659	1701.77709454266	0	2	0	0	1	0	0
27.8478747253418	2.65798629641533	punish_vlpfc	30.5058610217571	3	4	1	10	0	0	0	0	250	250	250	750	2000	0	BLOCKED	0.25	1	9	1	nervous	At this moment	2	1	5	226	VLPFC	340.559158563614	0.374531835205993	n/a	n/a	n/a	n/a	1760.01796407186	0	1395.80604405806	0.422384425427614	9.52180629914078e-06	23.1655358044714	1761.03920061491	1	3	0	0	1	0	0
31.4948269338608	2.61374204468727	punish_vlpfc	34.108568978548	4	4	1	10	0	0	0	0	250	250	250	750	2000	0	BLOCKED	0.25	1	1	-1	ashamed	At this moment	3	1	5	226	VLPFC	289.354249000549	0.48689138576779	n/a	n/a	n/a	n/a	1861.93917274939	0	1223.85462096224	0.646960165290934	-9.55254243215866e-05	37.0575215514992	1691.19523443505	1	4	0	0	1	0	0
35.1109255170822	2.65061413526535	punish_vlpfc	37.7615396523476	5	4	1	10	0	0	0	0	250	250	250	750	2000	0	BLOCKED	0.25	-1	10	-1	upset	At this moment	4	1	5	226	VLPFC	266.99692773819	0	1918.15260415781	0.00237739919454277	-4.71812794391989e-05	32.3184771921901	1712.30836454432	0	1143.8134641853	0.949206666955271	-0.00034787309688742	22.1621432592515	1649.92774788624	0	5	0	0	1	0	0
38.7683564422131	2.62952799749374	punish_vlpfc	41.3978844397068	6	4	1	10	0	0	0	0	250	250	250	750	2000	0	BLOCKED	0.25	1	1	-1	active	At this moment	4	1	5	226	VLPFC	267.358007192612	0	3852.04924266952	-1.86378985498374	0.0003939877505373	38.1862097833906	1695.83895131086	0	1004.91126718868	0.903795084197577	-0.000261013428099774	22.4009216395962	1548.07302075327	0	6	0	0	1	0	0
42.3986891114712	2.63538566946983	punish_vlpfc	45.034074780941	7	4	1	10	0	0	0	0	250	250	250	750	2000	0	BLOCKED	0.25	1	10	1	determined	At this moment	3	1	5	226	VLPFC	467.646166086197	0	3179.98658005831	-1.05344038101295	0.000136741965773365	41.4764852853682	1580.09987515605	0	1194.23510217652	0.706983983416297	-0.000234176629772632	22.1782868179072	1592.69715603382	0	7	0	0	1	0	0
46.0183653457165	2.56860637688637	punish_vlpfc	48.5869717226028	8	4	1	10	0	0	0	0	250	250	250	750	2000	0	BLOCKED	0.25	-1	7	-1	enthusiastic	At this moment	4	1	5	226	VLPFC	311.480959177017	0	1625.27888625483	0.0437338776836779	1.00089018723754e-05	22.5899826310574	1761.36828963795	0	1038.8637098595	1.04694384610248	-0.000409773328756542	22.3293556771041	1574.47732513451	0	8	0	0	1	0	0
49.6619313743115	6.23121477603912	panas_none	55.8931461503506	9	5	2	10	n/a	n/a	n/a	n/a	n/a	n/a	n/a	n/a	2000	0	BLOCKED	n/a	n/a	+	0	jittery	At this moment	5	1	5	226	NONE	n/a	0	1620.17288228411	-0.708013940683818	0.000216132981430537	20.0601440559408	1097.62172284644	0	1193.44244822762	0.33053388570244	-0.00027557600844806	53.5331751844759	1237.75326671791	0	1	0	1	0	0	1
56.8954117138386	6.43707569169998	panas_none	63.3324874055386	10	5	2	10	n/a	n/a	n/a	n/a	n/a	n/a	n/a	n/a	2000	0	BLOCKED	n/a	n/a	+	0	inspired	At this moment	2	1	5	226	NONE	n/a	0.00873907615480649	4948.8528712021	-3.4991278057922	0.00084177710106324	46.28112132815	1356.63098236776	0	1020.38526555247	0.818162473898469	-0.000315169162041118	73.4645505936118	1444.39584934666	1	2	0	1	0	0	1
64.3399061121941	6.28173631381989	panas_none	70.6216424260139	11	5	2	10	n/a	n/a	n/a	n/a	n/a	n/a	n/a	n/a	2000	0	BLOCKED	n/a	n/a	+	0	afraid	At this moment	3	1	5	226	NONE	n/a	0	-627.941243537778	2.14113087406675	-0.000546704143742525	23.5182576366385	1428.62047440699	0	1434.35243984725	0.234281681784503	-0.000119937897021516	19.1171711754293	1529.89392774789	0	3	0	1	0	0	1
71.613846419096	13.5196141383648	panas_none	85.1334605574608	12	5	2	10	n/a	n/a	n/a	n/a	n/a	n/a	n/a	n/a	2000	0	BLOCKED	n/a	n/a	+	0	distressed	At this moment	4	1	5	226	NONE	n/a	0	955.53932573076	0.492145694927024	-6.69234431795991e-05	17.7523231271563	1689.85018726592	0	1365.61552043168	0.335672154602734	-0.000122925556548523	25.1825503097573	1544.77094542659	0	4	0	1	0	0	1
86.1419293575287	2.59442815923691	reward_vlpfc	88.7363575167656	13	2	3	10	0	0	0	0	250	250	250	750	2000	0	BLOCKED	0.75	-1	2	1	ashamed	At this moment	2	1	5	226	VLPFC	678.746616363525	0	1927.0526038215	0.440993398526915	-0.000271476533695972	51.3323264653724	1641.38202247191	0	1050.5119865402	0.245473973769561	0.000137345061852051	26.6362497944689	1378.10299769408	0	1	1	0	0	0	0
89.7245875174999	2.59796243858337	reward_vlpfc	92.3225499560833	14	2	3	10	0	0	0	0	250	250	250	750	2000	0	BLOCKED	0.75	-1	1	1	nervous	At this moment	5	1	5	226	VLPFC	281.569173336029	0	4286.60447877617	-1.86815388737438	0.000264239124265582	52.0386559107929	1543.60299625468	0	1304.67005585538	0.260180573137297	2.52133895584743e-05	23.4759274564265	1547.0476556495	0	2	1	0	0	0	0
93.3067227468491	2.68540966486931	reward_vlpfc	95.9921324117184	15	2	3	10	0	0	0	0	250	250	250	750	2000	0	BLOCKED	0.75	1	10	1	excited	At this moment	5	1	5	226	VLPFC	537.488288879395	0	1193.95824354972	1.19791262362707	-0.000474608494013716	46.9026616250765	1592.92759051186	0	1238.75843770356	0.101371362455177	0.000148998966520021	20.9468504298259	1452.2190622598	0	3	1	0	0	0	0
96.9811388750076	2.69732776331901	reward_vlpfc	99.6784666383266	16	2	3	10	0	0	0	0	250	250	250	750	2000	0	BLOCKED	0.75	-1	10	-1	active	At this moment	4	1	5	226	VLPFC	407.429426431656	0	-703.769829542533	2.58171733168437	-0.000691616459160937	32.665459234817	1631.68913857678	0	1193.31532016339	0.407052096688678	-6.9233034801677e-05	19.6234395251057	1480.15680245965	0	4	1	0	0	0	0
100.670185783386	2.6278992600441	reward_vlpfc	103.29808504343	17	2	3	10	0	0	0	0	250	250	250	750	2000	0	BLOCKED	0.75	-1	2	1	ashamed	At this moment	4	1	5	226	VLPFC	556.749633789062	0	3932.75050911578	-1.76805345243178	0.000289593521567797	41.4879999239564	1512.14731585518	0	1245.75019902071	-0.146466054789082	0.000252036444293891	32.9169525827166	1338.73481936972	0	5	1	0	0	0	0
104.282367498159	2.58526470422746	reward_vlpfc	106.867632202387	18	2	3	10	0	0	0	0	250	250	250	750	2000	0	BLOCKED	0.75	-1	0	1	proud	At this moment	1	1	5	226	VLPFC	488.208314657211	0	3664.83034011158	-1.14929392274369	8.37315079028206e-05	57.6216147046103	1625.07990012484	0	1226.26847210258	0.212463311230255	0.000111618151809784	20.2104613343074	1502.97770945427	0	6	1	0	0	0	0
107.856866808653	2.74718003439902	reward_vlpfc	110.604046843052	19	2	3	10	0	0	0	0	250	250	250	750	2000	0	BLOCKED	0.75	1	6	1	interested	At this moment	1	1	5	226	VLPFC	333.766699314117	0	3582.93484383174	-1.29937260793431	0.000162656931308389	38.8680736214794	1579.62546816479	0	1207.92178494552	0.285190797124546	8.28757879990863e-05	21.338541463167	1522.06840891622	0	7	1	0	0	0	0
111.606459447861	2.70070548057556	reward_vlpfc	114.307164928436	20	2	3	10	0	0	0	0	250	250	250	750	2000	0	BLOCKED	0.75	1	1	-1	jittery	At this moment	4	1	5	226	VLPFC	357.719964981079	0	1897.91155460629	-0.213483675658763	6.09805388576122e-05	21.2473992281638	1720.96754057428	0	1015.42998349635	0.932491062417147	-0.000305208927620597	33.1231688925622	1544.85549577248	0	8	1	0	0	0	0
115.295651281834	6.267300178051	panas_none	121.562951459885	21	5	4	10	n/a	n/a	n/a	n/a	n/a	n/a	n/a	n/a	2000	0	BLOCKED	n/a	n/a	+	0	inspired	At this moment	2	1	5	226	NONE	n/a	0	771.616463616837	0.215072067187625	-2.40238376809893e-05	15.222714184754	1116.03995006242	0	1259.50546633461	0.0263791046550866	-0.000102129757646031	48.1803325665052	1203.93235972329	2	1	0	1	0	1	1
122.565333034277	6.27019481015205	panas_none	128.835527844429	22	5	4	10	n/a	n/a	n/a	n/a	n/a	n/a	n/a	n/a	2000	0	BLOCKED	n/a	n/a	+	0	active	At this moment	2	1	5	226	NONE	n/a	0	2490.29335587843	-1.20690162432248	0.000293995036380656	17.8849967465806	1267.95630461923	0	1397.86707719008	0.113316144027355	-7.08429321246501e-05	16.5876645687858	1432.61029976941	0	2	0	1	0	1	1
129.824512798071	6.33638346934319	panas_none	136.160896267414	23	5	4	10	n/a	n/a	n/a	n/a	n/a	n/a	n/a	n/a	2000	0	BLOCKED	n/a	n/a	+	0	interested	At this moment	4	1	5	226	NONE	n/a	0	263.39023907956	0.849180084774042	-0.000205425357295356	19.2054101119293	1129.58801498127	0	1258.31917302568	0.0176843578727561	3.64325970598363e-05	26.1547594496899	1303.38739431207	2	3	0	1	0	1	1
137.146491867542	8.55276717877388	panas_none	145.699259046316	24	5	4	10	n/a	n/a	n/a	n/a	n/a	n/a	n/a	n/a	2000	0	BLOCKED	n/a	n/a	+	0	afraid	At this moment	5	1	5	226	NONE	n/a	0	1900.40150996351	-0.00253771030255054	-2.83001674046821e-05	24.4534203809768	1768.11610486891	0	1642.46642803601	-0.332625618206078	0.00031743240101638	24.5851371357233	1634.47194465796	0	4	0	1	0	1	1
146.703904421091	2.59830553483965	reward_vlpfc	149.302209955931	25	2	5	10	0	0	0	0	250	250	250	750	2000	0	BLOCKED	0.75	-1	1	1	enthusiastic	At this moment	1	1	5	226	VLPFC	415.550898790359	0	3995.21427721442	-1.52412039694079	0.00020745781739412	46.7364697968431	1719.37328339576	0	939.152683453914	0.95312477784537	-0.000198715760381844	29.7284047920914	1578.94388931591	0	1	1	0	0	0	0
150.2915729146	2.61356291532516	reward_vlpfc	152.905135829926	26	2	5	10	0	0	0	0	250	250	250	750	2000	0	BLOCKED	0.75	-1	1	1	ashamed	At this moment	2	1	5	226	VLPFC	323.954781770706	0	2588.56059186016	-0.661462413630734	8.74366299109399e-05	23.5840410672838	1590.59800249688	0	1141.65914137448	1.05825069565939	-0.000424991375058038	23.3061682082962	1675.52959262106	0	2	1	0	0	0	0
153.893979383945	2.66435173678397	reward_vlpfc	156.558331120729	27	2	5	10	0	0	0	0	250	250	250	750	2000	0	BLOCKED	0.75	-1	8	-1	inspired	At this moment	1	1	5	226	VLPFC	428.703508615494	0	-224.959897535294	2.03678753888087	-0.000526917812691866	26.7864474885623	1701.38826466916	0	1190.6440983518	0.686993793552687	-0.000250098884632101	19.4476870727858	1557.93620292083	0	3	1	0	0	0	0
157.548073495388	2.64628752589226	reward_vlpfc	160.19436102128	28	2	5	10	0	0	0	0	250	250	250	750	2000	0	BLOCKED	0.75	1	8	1	alert	At this moment	5	1	5	226	VLPFC	288.711075782776	0	-251.848309910405	2.37034977377004	-0.000697420817753086	44.2452329227666	1613.94007490637	0	1103.34704181018	0.480439464553604	-7.11738208356602e-05	19.570058610892	1450.25903151422	0	4	1	0	0	0	0
161.17848056674	2.63549392294883	reward_vlpfc	163.813974489689	29	2	5	10	0	0	0	0	250	250	250	750	2000	0	BLOCKED	0.75	-1	0	1	irritable	At this moment	2	1	5	226	VLPFC	398.486004114151	0	3102.24792624358	-0.896566085041414	6.92514437329721e-05	43.7856487902132	1527.71535580524	0	1100.69980532742	0.651915387861002	-0.000219001469371387	17.2952861899183	1465.47194465796	0	5	1	0	0	0	0
164.820609328985	2.57992608451841	reward_vlpfc	167.400535413504	30	2	5	10	0	0	0	0	250	250	250	750	2000	0	BLOCKED	0.75	-1	4	1	attentive	At this moment	3	1	5	226	VLPFC	382.948293447495	0	1821.11856082103	0.373597671440481	-0.000241113028820567	46.823000017342	1529.88514357054	0	1308.35663115004	0.119619950127856	4.39549332775331e-05	17.1766102387995	1447.76787086856	0	6	1	0	0	0	0
168.401143677711	2.65204047036173	reward_vlpfc	171.053184148073	31	2	5	10	0	0	0	0	250	250	250	750	2000	0	BLOCKED	0.75	1	9	1	distressed	At this moment	3	1	5	226	VLPFC	405.044678211212	0	2327.58541314143	-0.204693256272039	-8.58782370550719e-05	37.9951354356487	1514.5443196005	0	1026.55332593338	0.520807999704206	-9.3604180310729e-05	17.4845725931177	1388.00461183705	0	7	1	0	0	0	0
172.070886574268	2.53517688488961	reward_vlpfc	174.606063459158	32	2	5	10	0	0	0	0	250	250	250	750	2000	0	BLOCKED	0.75	1	3	-1	determined	At this moment	5	1	5	226	VLPFC	724.721159219742	0	2797.82683630437	-0.802684315458269	0.000120510127962458	35.643111437954	1650.21847690387	0	1238.49941941156	0.334331327491	-2.19753163843023e-05	16.1098664846213	1503.54189085319	0	8	1	0	0	0	0
175.610659115076	6.28467890167238	panas_none	181.895338016748	33	5	6	10	n/a	n/a	n/a	n/a	n/a	n/a	n/a	n/a	2000	0	BLOCKED	n/a	n/a	+	0	enthusiastic	At this moment	4	1	5	226	NONE	n/a	0	776.848034055071	0.0548451439301991	7.54359442635645e-05	15.1045624047353	1228.87265917603	0	1168.59939056213	0.422928699918463	-0.000300707647271561	55.6905539058282	1270.92006149116	1	1	0	1	0	1	1
182.87965009141	6.32169732832909	panas_none	189.201347419739	34	5	6	10	n/a	n/a	n/a	n/a	n/a	n/a	n/a	n/a	2000	0	BLOCKED	n/a	n/a	+	0	nervous	At this moment	4	1	5	226	NONE	n/a	0	2549.53789423198	-1.53254876626166	0.000427954987650633	18.729035364382	1241.31710362047	0	1408.25722506541	0.405706750393697	-0.000350817131368471	22.7809234590902	1452.53958493467	0	2	0	1	0	1	1
190.192584537268	6.41471801757811	panas_none	196.607302554846	35	5	6	10	n/a	n/a	n/a	n/a	n/a	n/a	n/a	n/a	2000	0	BLOCKED	n/a	n/a	+	0	distressed	At this moment	3	1	5	226	NONE	n/a	0	1391.66570624962	-0.106673230178636	5.55450787877373e-05	13.359899860382	1415.29962546816	0	1475.20898066407	-0.0468474071554446	-4.69548290200062e-06	16.0736221321659	1431.26902382782	2	3	0	1	0	1	1
197.596505425692	7.75149853348731	panas_none	205.348003959179	36	5	6	10	n/a	n/a	n/a	n/a	n/a	n/a	n/a	n/a	2000	0	BLOCKED	n/a	n/a	+	0	jittery	At this moment	2	1	5	226	NONE	n/a	0	-742.215558404198	1.96265776264538	-0.000402163024400899	22.3000512286077	1584.43445692884	0	1182.45370236831	-0.151242726357593	0.000222344652238898	24.2616970105341	1245.35818601076	0	4	0	1	0	1	1
206.337164163351	2.66354389142992	reward_rtpj	209.000708054781	37	1	7	10	750	250	250	250	0	0	0	0	2000	0	BLOCKED	0.75	1	2	-1	enthusiastic	At this moment	3	1	5	226	RTPJ	451.983276128769	0	1278.71283879007	0.793906442229152	-0.000264011961220186	31.710524185176	1767.9975031211	0	973.877188802353	0.730165629037444	-7.66134385786418e-05	26.5503447707848	1528.18293620292	0	1	1	0	0	0	0
210.006475456715	2.63060947346688	reward_rtpj	212.637084930182	38	1	7	10	750	250	250	250	0	0	0	0	2000	0	BLOCKED	0.75	-1	0	1	ashamed	At this moment	3	1	5	226	RTPJ	335.666599273682	0	4455.58550726751	-2.30554211260149	0.000431504317607785	45.583427860644	1541.49438202247	0	966.502813838721	0.743855485446426	-0.00014224889330235	44.9316974139624	1476.74865488086	0	2	1	0	0	0	0
213.64387104249	2.64608618164061	reward_rtpj	216.289957224131	39	1	7	10	750	250	250	250	0	0	0	0	2000	0	BLOCKED	0.75	1	8	1	afraid	At this moment	5	1	5	226	RTPJ	527.205980062485	0	2596.35364605842	-0.501945914150823	-6.02175449845907e-06	41.6390037196497	1515.84893882647	0	1032.68770381435	0.657990767907522	-0.000183257754028446	29.0450979765335	1433.89162182936	0	3	1	0	0	0	0
217.274138477564	2.66889167928696	reward_rtpj	219.943030156851	40	1	7	10	750	250	250	250	0	0	0	0	2000	0	BLOCKED	0.75	1	6	1	nervous	At this moment	4	1	5	226	RTPJ	553.117327213287	0	-363.179360507494	2.55523618103671	-0.000767210566226727	58.7235352776441	1578.41822721598	0	1274.86789182397	0.125603225345284	8.65872024854154e-05	21.2479456782581	1456.72636433513	0	4	1	0	0	0	0
220.932171672344	2.64706010961532	reward_rtpj	223.57923178196	41	1	7	10	750	250	250	250	0	0	0	0	2000	0	BLOCKED	0.75	-1	6	-1	enthusiastic	At this moment	2	1	5	226	RTPJ	486.512932777405	0	2006.16109558079	-0.0208457225424981	-8.6643539787843e-05	24.8753312202189	1575.95380774032	0	1264.45980554898	0.189245971279771	7.97574431276452e-05	28.6064421051081	1494.41813989239	0	5	1	0	0	0	0
224.56386509037	2.61851577186584	reward_rtpj	227.182380862236	42	1	7	10	750	250	250	250	0	0	0	0	2000	0	BLOCKED	0.75	-1	4	1	attentive	At this moment	5	1	5	226	RTPJ	410.06876373291	0	5963.71163339254	-3.74649123144719	0.000742905926429446	43.8797864266091	1413.11111111111	0	1125.91229029829	0.42657932306068	-3.78577762699768e-05	31.0281211328423	1455.85242121445	0	6	1	0	0	0	0
228.171723721743	2.63040636658667	reward_rtpj	230.802130088329	43	1	7	10	750	250	250	250	0	0	0	0	2000	0	BLOCKED	0.75	1	10	1	upset	At this moment	5	1	5	226	RTPJ	585.348979949951	0	3899.41290551908	-1.86809981508289	0.000322780310075778	25.4545479349253	1415.22471910112	0	957.41000180049	0.486201732822837	-4.45767462582998e-06	45.0317936239591	1367.17909300538	0	7	1	0	0	0	0
231.792200043917	2.69619304203988	reward_rtpj	234.488393085957	44	1	7	10	750	250	250	250	0	0	0	0	2000	0	BLOCKED	0.75	-1	2	1	irritable	At this moment	1	1	5	226	RTPJ	751.097608327866	0	1867.53641436201	-0.240053824214782	-4.29873764011506e-06	22.3479280726091	1344.40324594257	0	991.434714031804	0.328478653582998	2.51776086097479e-06	51.7416077974402	1273.53497309762	0	8	1	0	0	0	0
235.488930121422	6.30554359602928	panas_none	241.794473717451	45	5	8	10	n/a	n/a	n/a	n/a	n/a	n/a	n/a	n/a	2000	0	BLOCKED	n/a	n/a	+	0	proud	At this moment	4	1	5	226	NONE	n/a	0	2194.83724737452	-1.42222472006459	0.000380797209802049	11.389492866028	907.867665418227	0	1025.75673650687	0.0652555101351905	-7.79485653327834e-05	24.5761968684487	1015.16295157571	0	1	0	1	0	1	0
242.801270760775	6.24870986294746	panas_none	249.049980623722	46	5	8	10	n/a	n/a	n/a	n/a	n/a	n/a	n/a	n/a	2000	0	BLOCKED	n/a	n/a	+	0	enthusiastic	At this moment	4	1	5	226	NONE	n/a	0	1719.98047754566	-0.761248117815612	0.000192608715517051	17.1600336675732	980.775280898876	0	958.304687356018	0.361909748248875	-0.000163309717768901	14.4299355153148	1124.6195234435	2	2	0	1	0	1	0
250.055787166119	6.40012955164909	panas_none	256.455916717768	47	5	8	10	n/a	n/a	n/a	n/a	n/a	n/a	n/a	n/a	2000	0	BLOCKED	n/a	n/a	+	0	strong	At this moment	3	1	5	226	NONE	n/a	0	1618.44453340385	-0.569466384199824	0.00015618865840733	16.0051172567096	1121.01123595506	0	1270.26254481881	0.27980623430182	-0.000223998573775881	24.2412444337282	1314.9907763259	1	3	0	1	0	1	0
257.441963667154	7.78778175425532	panas_none	265.22974542141	48	5	8	10	n/a	n/a	n/a	n/a	n/a	n/a	n/a	n/a	2000	0	BLOCKED	n/a	n/a	+	0	distressed	At this moment	2	1	5	226	NONE	n/a	0	-910.085002352105	1.8779719829896	-0.00031053399260237	26.581646060919	1647.52434456929	0	1191.50370081109	0.465977860213944	-0.000220459356980654	23.2570327247838	1396.6956187548	0	4	0	1	0	1	0
266.218366474152	2.76456545782094	punish_rtpj	268.982931931973	49	3	9	10	750	250	250	250	0	0	0	0	2000	0	BLOCKED	0.25	-1	10	-1	afraid	At this moment	1	1	5	226	RTPJ	674.363588094711	0	1783.93028557623	0.114187383048669	-0.00010287277777891	27.5180855073602	1565.03370786517	0	802.820254896355	0.472953974599803	4.03383870542075e-05	43.1477515963455	1239.95618754804	0	1	0	0	1	0	0
269.977157124996	2.65869435143469	punish_rtpj	272.635851476431	50	3	9	10	750	250	250	250	0	0	0	0	2000	0	BLOCKED	0.25	1	7	1	scared	At this moment	5	1	5	226	RTPJ	436.375394821167	0	3185.59216946608	-1.42012397927411	0.000261884062926635	30.9516642548123	1373.05742821473	0	865.815988224427	0.755388117549011	-0.0002445899872101	22.9451827579454	1296.54880860876	0	2	0	0	1	0	0
273.636620533943	2.65248159408566	punish_rtpj	276.289102128029	51	3	9	10	750	250	250	250	0	0	0	0	2000	0	BLOCKED	0.25	-1	10	-1	upset	At this moment	3	1	5	226	RTPJ	439.985486268997	0	2021.4530760529	-0.536939801250961	0.00012358713287575	27.5192820529587	1445.73782771536	0	1000.24888913724	0.500387313387082	-0.000143072151363012	22.9560311545688	1303.36049192929	0	3	0	0	1	0	0
277.278168535948	2.68043847227096	punish_rtpj	279.958607008219	52	3	9	10	750	250	250	250	0	0	0	0	2000	0	BLOCKED	0.25	-1	9	-1	excited	At this moment	3	1	5	226	RTPJ	352.681069612503	0	-573.373590649038	2.08140683786351	-0.000529900442088501	27.4093467752455	1432.65293383271	0	1056.01449373921	0.392904003275976	-0.000112665978029239	16.4198354876664	1292.56264411991	0	4	0	0	1	0	0
280.963684691429	2.71449244856836	punish_rtpj	283.678177139998	53	3	9	10	750	250	250	250	0	0	0	0	2000	0	BLOCKED	0.25	-1	4	1	guilty	At this moment	2	1	5	226	RTPJ	450.441282510757	0	-1248.24656685001	3.0271136316565	-0.0008462896257666	45.001986948278	1333.23845193508	0	1033.53524521117	0.237566855888911	-1.13610169999418e-05	17.8960984909228	1225.8670253651	0	5	0	0	1	0	0
284.684214293718	2.74701183629037	punish_rtpj	287.431226130009	54	3	9	10	750	250	250	250	0	0	0	0	2000	0	BLOCKED	0.25	1	1	-1	distressed	At this moment	1	1	5	226	RTPJ	409.256334543228	0	268.800537720924	1.30031269454147	-0.000377241813455099	23.2580572876336	1316.06866416979	0	958.82707306375	0.190202310394174	6.61958393998455e-05	18.815282320473	1177.1329746349	0	6	0	0	1	0	0
288.43662328434	2.59770820164675	punish_rtpj	291.034331485987	55	3	9	10	750	250	250	250	0	0	0	0	2000	0	BLOCKED	0.25	-1	7	-1	nervous	At this moment	4	1	5	226	RTPJ	576.184818983078	0	2492.12793835861	-0.912715308278492	0.000167341879836661	27.1610862386224	1322.94382022472	0	898.398779085013	0.201546450687957	0.000121203205645871	20.7631856858099	1170.38201383551	0	7	0	0	1	0	0
292.023255084276	2.59703011941912	punish_rtpj	294.620285203695	56	3	9	10	750	250	250	250	0	0	0	0	2000	0	BLOCKED	0.25	1	0	-1	interested	At this moment	1	1	5	226	RTPJ	1159.49708342552	0	2217.17962180532	-0.686937989985936	0.000117592611861939	14.9690408707056	1299.79151061174	0	891.84327428	0.417125849772315	-3.65390705995671e-05	17.4862248397711	1214.84166026134	0	8	0	0	1	0	0
295.609119237185	6.33373672699929	panas_none	301.942855964184	57	5	10	10	n/a	n/a	n/a	n/a	n/a	n/a	n/a	n/a	2000	0	BLOCKED	n/a	n/a	+	0	strong	At this moment	2	1	5	226	NONE	n/a	0	-192.57240294311	1.05985219686478	-0.000253358494620085	27.7197425833662	902.892634207241	0	1089.49876827903	-0.289595380104592	0.000115635902749124	20.047093277087	951.003074558032	0	1	0	1	0	0	0
302.932292267323	6.50007598876948	panas_none	309.432368256092	58	5	10	10	n/a	n/a	n/a	n/a	n/a	n/a	n/a	n/a	2000	0	BLOCKED	n/a	n/a	+	0	guilty	At this moment	2	1	5	226	NONE	n/a	0.305867665418227	n/a	n/a	n/a	n/a	972.971223021583	0	1108.61942002543	-0.205558548783317	0.000137002132075938	13.5174210689644	1052.26287471176	2	2	0	1	0	0	0
310.437287261963	6.20461300444606	panas_none	316.641900266409	59	5	10	10	n/a	n/a	n/a	n/a	n/a	n/a	n/a	n/a	2000	0	BLOCKED	n/a	n/a	+	0	scared	At this moment	3	1	5	226	NONE	n/a	0	1092.68990862603	-0.070531590695249	1.45790565342218e-05	19.5451718711517	1009.74282147316	0	1006.10832666949	0.226582603301361	-8.10158993075196e-05	13.3663495180379	1128.91237509608	0	3	0	1	0	0	0
317.642329401255	14.9090072107315	panas_none	332.551336611986	60	5	10	10	n/a	n/a	n/a	n/a	n/a	n/a	n/a	n/a	2000	0	BLOCKED	n/a	n/a	+	0	nervous	At this moment	5	1	5	226	NONE	n/a	0	-662.898685500604	2.01507496101112	-0.00050322898058516	18.4404365108074	1322.26966292135	0	1022.86774236578	0.0309964546084347	0.000111168504052293	16.6386256730873	1144.20292083013	0	4	0	1	0	0	0
333.540594138384	2.79691312122344	punish_vlpfc	336.337507259607	61	4	11	10	0	0	0	0	250	250	250	750	2000	0	BLOCKED	0.25	-1	4	1	afraid	At this moment	1	1	5	226	VLPFC	607.91081905365	0	-2198.30107230024	3.67128707487541	-0.000948223205296655	21.7199710198696	1279.60923845193	0	708.165612478084	0.313910832054007	6.15327687779141e-05	16.4196158819238	1028.25288239816	0	1	0	0	1	0	0
337.326502086401	2.68088312196733	punish_vlpfc	340.007385208368	62	4	11	10	0	0	0	0	250	250	250	750	2000	0	BLOCKED	0.25	-1	9	-1	irritable	At this moment	1	1	5	226	VLPFC	609.589627981186	0	2116.03763596473	-0.481164010173217	3.80571224353227e-05	26.1716912227054	1276.23595505618	0	892.530798226705	-0.0100928613823589	0.000236820325816078	28.6795801483918	1087.68793235972	0	2	0	0	1	0	0
340.997922028542	2.5455790834427	punish_vlpfc	343.543501111984	63	4	11	10	0	0	0	0	250	250	250	750	2000	0	BLOCKED	0.25	-1	7	-1	upset	At this moment	5	1	5	226	VLPFC	541.030678033829	0	2742.14883281875	-1.22367240059893	0.000240078139386637	21.2781455829494	1243.96629213483	0	915.773798626586	0.0530126833557702	0.000153332632673758	17.2546415989273	1092.48039969254	0	3	0	0	1	0	0
344.527597032309	2.6355686776638	punish_vlpfc	347.163165709972	64	4	11	10	0	0	0	0	250	250	250	750	2000	0	BLOCKED	0.25	-1	6	-1	attentive	At this moment	2	1	5	226	VLPFC	704.996828079224	0	2686.10866329429	-1.27554428605069	0.000278832252908649	22.9449982022967	1251.93383270911	0	873.844934427804	0.217866968782715	4.43240668167426e-05	20.5427039589831	1097.36894696387	0	4	0	0	1	0	0
348.153357318401	2.72957634139061	punish_vlpfc	350.882933659792	65	4	11	10	0	0	0	0	250	250	250	750	2000	0	BLOCKED	0.25	1	1	-1	ashamed	At this moment	1	1	5	226	VLPFC	419.164164066315	0	2311.02738983143	-1.008209082439	0.000207674880598176	15.9485161756103	1120.51685393258	0	802.668198692413	0.54607084966801	-0.000176207792655268	19.5230279184277	1114.80553420446	0	5	0	0	1	0	0
351.869146691799	2.61675762414927	punish_vlpfc	354.485904315948	66	4	11	10	0	0	0	0	250	250	250	750	2000	0	BLOCKED	0.25	-1	10	-1	proud	At this moment	2	1	5	226	VLPFC	895.305576086044	0	1829.01704916109	-0.47297084703684	6.56883375881376e-05	14.9531511769931	1128.92634207241	0	866.660670417789	0.367549895249883	-4.8745231418571e-05	16.9553696065332	1137.01691006918	0	6	0	0	1	0	0
355.470496720791	2.73508069109914	punish_vlpfc	358.20557741189	67	4	11	10	0	0	0	0	250	250	250	750	2000	0	BLOCKED	0.25	1	0	-1	interested	At this moment	2	1	5	226	VLPFC	432.234614372253	0	1258.65118598294	0.151140355611028	-9.16461565453416e-05	18.4901914133718	1167.61173533084	0	801.989075311069	0.340919461772801	-1.5086736228109e-05	27.2616942354774	1079.67947732513	0	7	0	0	1	0	0
359.19688187933	2.72814330649373	punish_vlpfc	361.925025185823	68	4	11	10	0	0	0	0	250	250	250	750	2000	0	BLOCKED	0.25	-1	3	1	strong	At this moment	1	1	5	226	VLPFC	671.727777004242	0	3117.74012504252	-1.48809405534427	0.000244546937582812	22.5606002616046	1084.00873907615	0	862.2453576738	0.266322743693487	8.95069436716869e-06	21.2752283877962	1096.88624135281	0	8	0	0	1	0	0
362.909693403244	6.07107310819623	panas_none	368.98076651144	69	5	12	10	n/a	n/a	n/a	n/a	n/a	n/a	n/a	n/a	2000	0	BLOCKED	n/a	n/a	+	0	upset	At this moment	4	1	5	226	NONE	n/a	0	1085.84424580669	-0.412452055184325	0.000128473823473927	10.4096031933352	795.531835205992	0	931.8229010532	-0.0285548679758625	-4.57819852684881e-05	15.9133149100325	868.084550345888	2	1	0	1	0	0	1
369.973312895775	6.21381842136384	panas_none	376.187131317139	70	5	12	10	n/a	n/a	n/a	n/a	n/a	n/a	n/a	n/a	2000	0	BLOCKED	n/a	n/a	+	0	active	At this moment	4	1	5	226	NONE	n/a	0	932.447229422622	-0.0892246802034121	1.50773477860418e-05	9.42821112512204	812.484394506866	0	1048.5011140588	-0.191485770616886	5.8416444032558e-05	12.3911769259187	936.239815526518	2	2	0	1	0	0	1
377.194460458994	6.41668526744843	panas_none	383.611145726442	71	5	12	10	n/a	n/a	n/a	n/a	n/a	n/a	n/a	n/a	2000	0	BLOCKED	n/a	n/a	+	0	distressed	At this moment	3	1	5	226	NONE	n/a	0	1985.64214092118	-1.1132377546659	0.000279504258710252	20.3455118951649	895.677902621723	0	1202.59900875366	0.00671944266189626	-9.48772389492819e-05	11.32176584122	1126.22059953882	0	3	0	1	0	0	1
384.610153815031	5.54223415946961	panas_none	390.152387974501	72	5	12	10	n/a	n/a	n/a	n/a	n/a	n/a	n/a	n/a	2000	0	BLOCKED	n/a	n/a	+	0	enthusiastic	At this moment	3	1	5	226	NONE	n/a	0	923.885967568909	0.398038203402651	-0.000112375669955598	18.3374571187403	1258.22097378277	0	1120.05946982373	-0.0116081450924731	7.49195815166952e-05	18.2449355709567	1175.1429669485	0	4	0	1	0	0	1
391.153967345715	2.59692680263515	reward_rtpj	393.75089414835	73	1	13	10	750	250	250	250	0	0	0	0	2000	0	BLOCKED	0.75	-1	0	1	afraid	At this moment	5	1	5	226	RTPJ	474.005611419678	0	2260.0760870668	-0.900280819831294	0.000154259725587172	16.7913894176145	1057.64169787765	0	724.843443044535	0.449967900230014	-0.000120745142422923	18.0467492141379	1003.71022290546	0	1	1	0	0	0	0
394.755988757133	2.56444796586038	reward_rtpj	397.320436722994	74	1	13	10	750	250	250	250	0	0	0	0	2000	0	BLOCKED	0.75	-1	0	1	alert	At this moment	3	1	5	226	RTPJ	353.291096925735	0	2358.75877997197	-0.997106472813819	0.000169525000544007	22.9232883260148	1022.92384519351	0	811.436155208725	0.487097602899063	-0.000195880932914826	13.8307207156954	1056.40737893928	0	2	1	0	0	0	0
398.304630671024	2.63544490909578	reward_rtpj	400.94007558012	75	1	13	10	750	250	250	250	0	0	0	0	2000	0	BLOCKED	0.75	1	8	1	active	At this moment	1	1	5	226	RTPJ	613.337945222855	0	1797.60614535551	-0.227980005417211	-4.81522803498313e-05	26.2084494651397	1103.55555555556	0	773.574673574644	0.549543940798752	-0.000182863168480498	13.0426007609754	1082.69331283628	0	3	1	0	0	0	0
401.924315720558	2.53519451570509	reward_rtpj	404.459510236263	76	1	13	10	750	250	250	250	0	0	0	0	2000	0	BLOCKED	0.75	1	9	1	nervous	At this moment	2	1	5	226	RTPJ	579.715219497681	0	5517.72367697278	-3.82017513873916	0.000801217835827403	12.2344482988454	1059.87390761548	0	695.685625959301	0.543585580478737	-0.00016045503348275	12.8557453693588	1019.03151421983	0	4	1	0	0	0	0
405.447506099462	2.74873225426677	reward_rtpj	408.196238353729	77	1	13	10	750	250	250	250	0	0	0	0	2000	0	BLOCKED	0.75	-1	7	-1	ashamed	At this moment	2	1	5	226	RTPJ	610.964128494263	0	1301.50050213982	-0.0647713231259741	-1.83952781958167e-06	20.6870151719111	1156.99375780275	0	678.04374756303	0.519437572225525	-0.000139520225558065	21.81861044265	998.788624135281	0	5	1	0	0	0	0
409.196850849152	2.58535497403147	reward_rtpj	411.782205823183	78	1	13	10	750	250	250	250	0	0	0	0	2000	0	BLOCKED	0.75	1	2	-1	guilty	At this moment	3	1	5	226	RTPJ	329.713015556335	0.409488139825218	n/a	n/a	n/a	n/a	1198.07822410148	0	725.107158230827	0.62590586956488	-0.000232952747797107	17.8699545235309	1056.64258262875	1	6	1	0	0	0	0
412.766472762585	2.71877498078351	reward_rtpj	415.485247743368	79	1	13	10	750	250	250	250	0	0	0	0	2000	0	BLOCKED	0.75	1	6	1	alert	At this moment	4	1	5	226	RTPJ	623.148100376129	0	1817.07930367617	-0.354261149281686	-3.37340281230499e-06	17.8713110408578	1058.4506866417	0	820.801675487453	0.660821245895645	-0.00026010546367873	22.1351808899017	1158.21829362029	0	7	1	0	0	0	0
416.489779575825	2.61502451205251	reward_rtpj	419.104804087877	80	1	13	10	750	250	250	250	0	0	0	0	2000	0	BLOCKED	0.75	-1	0	1	scared	At this moment	1	1	5	226	RTPJ	524.955226182938	0	2270.43296709091	-0.800733362645556	0.000108184204113194	21.9922803664756	1071.88764044944	0	742.851878776564	0.449644614652627	-8.04748085901711e-05	17.1376189062468	1055.36971560338	0	8	1	0	0	0	0
420.107377838612	6.38915752410884	panas_none	426.49653536272	81	5	14	10	n/a	n/a	n/a	n/a	n/a	n/a	n/a	n/a	2000	0	BLOCKED	n/a	n/a	+	0	attentive	At this moment	5	1	5	226	NONE	n/a	0	1516.80877328954	-0.713253792546848	0.000179346789349751	11.2072672477998	824.952559300874	0	884.585375095077	-0.275951442677101	0.000233813293189451	34.8386428994738	851.995388162952	2	1	0	1	0	1	0
427.497336155653	6.53638600850104	panas_none	434.033722164154	82	5	14	10	n/a	n/a	n/a	n/a	n/a	n/a	n/a	n/a	2000	0	BLOCKED	n/a	n/a	+	0	nervous	At this moment	3	1	5	226	NONE	n/a	0	1942.43665377271	-0.957152616688308	0.00020835475198065	12.6384854805851	862.70911360799	0	1242.54658368989	-0.214190438541022	0.000100614493187407	12.8899653311404	1146.37663335895	0	2	0	1	0	1	0
435.041153212547	6.3318431742191	panas_none	441.372996386766	83	5	14	10	n/a	n/a	n/a	n/a	n/a	n/a	n/a	n/a	2000	0	BLOCKED	n/a	n/a	+	0	distressed	At this moment	2	1	5	226	NONE	n/a	0	612.831924923245	0.183393660248719	-3.16569763123185e-05	10.7637490129569	856.815230961298	0	1108.89606550902	-0.20858551776022	4.01093414516967e-05	11.1623017424714	966.152959262106	1	3	0	1	0	1	0
442.37920032835	8.48515571022034	panas_none	450.86435603857	84	5	14	10	n/a	n/a	n/a	n/a	n/a	n/a	n/a	n/a	2000	0	BLOCKED	n/a	n/a	+	0	jittery	At this moment	1	1	5	226	NONE	n/a	0.387016229712859	n/a	n/a	n/a	n/a	1372.28920570265	0	1339.14834054703	0.336166101523013	-0.000222077870419674	15.9588378482328	1435.40891621829	1	4	0	1	0	1	0
451.852264805555	2.66476147747039	punish_rtpj	454.517026283026	85	3	15	10	750	250	250	250	0	0	0	0	2000	0	BLOCKED	0.25	1	0	-1	inspired	At this moment	3	1	5	226	RTPJ	443.596283197403	0	876.222450470223	0.710070853588246	-0.000229525066209835	19.9882283051411	1342.93632958802	0	891.79746650018	0.460604787613983	-7.1281165040558e-05	18.5657663740261	1221.52959262106	0	1	0	0	1	0	0
455.517728343487	2.75246117758752	punish_rtpj	458.270189521074	86	3	15	10	750	250	250	250	0	0	0	0	2000	0	BLOCKED	0.25	-1	0	1	irritable	At this moment	2	1	5	226	RTPJ	489.543322086334	0	-1166.28759333861	2.7078927674165	-0.000737633278754107	29.2905238749134	1228.20224719101	0	1024.60916729655	0.318441058473087	-8.56603807183728e-05	16.9744127783422	1221.55726364335	0	2	0	0	1	0	0
459.254129584551	2.61889236688614	punish_rtpj	461.873021951437	87	3	15	10	750	250	250	250	0	0	0	0	2000	0	BLOCKED	0.25	1	0	-1	nervous	At this moment	3	1	5	226	RTPJ	341.212205171585	0	1038.6297664906	0.341880959330478	-0.000104103387595732	12.7562625126098	1292.12734082397	0.230591852421214	874.894760168369	0.18483735455049	6.11465950590104e-05	17.1733297140979	1093.28071928072	1	3	0	0	1	0	0
462.881265429258	2.69497721934317	punish_rtpj	465.576242648602	88	3	15	10	750	250	250	250	0	0	0	0	2000	0	BLOCKED	0.25	-1	3	1	scared	At this moment	5	1	5	226	RTPJ	452.019243001938	0	2791.64415789832	-1.09368540666444	0.000157450941482772	22.8207043040976	1197.52808988764	0	884.949065020063	0.127056610850926	0.000108852948708241	20.3403621151752	1087.52728670254	0	4	0	0	1	0	0
466.563857332468	2.63172762203214	punish_rtpj	469.1955849545	89	3	15	10	750	250	250	250	0	0	0	0	2000	0	BLOCKED	0.25	1	2	-1	proud	At this moment	4	1	5	226	RTPJ	314.996549844742	0	1970.90834568821	-0.623075673278646	0.000107494698518543	24.9446520416581	1142.52808988764	0	858.770783873666	0.341459995553665	-6.67115273577262e-05	23.1521224215681	1091.06072252114	0	5	0	0	1	0	0
470.199518748522	2.68284367203711	punish_rtpj	472.882362420559	90	3	15	10	750	250	250	250	0	0	0	0	2000	0	BLOCKED	0.25	1	3	-1	distressed	At this moment	4	1	5	226	RTPJ	521.264385461807	0	1609.73820828913	-0.38991560111252	7.09847175372699e-05	18.906390216365	1108.34207240949	0	820.12304068973	0.499897979975377	-0.000173471680147962	25.3830805142229	1094.6856264412	0	6	0	0	1	0	0
473.887311398506	2.59749486851695	punish_rtpj	476.484806267023	91	3	15	10	750	250	250	250	0	0	0	0	2000	0	BLOCKED	0.25	-1	7	-1	guilty	At this moment	5	1	5	226	RTPJ	342.390650987625	0	1389.53809646102	-0.143556382547293	1.5287053517563e-05	17.0455535665679	1156.49438202247	0	763.309000412496	0.497719741564378	-0.000154217581612028	19.3329316974498	1053.67486548809	0	7	0	0	1	0	0
477.47479688406	2.73279397034645	punish_rtpj	480.207590854406	92	3	15	10	750	250	250	250	0	0	0	0	2000	0	BLOCKED	0.25	1	3	-1	irritable	At this moment	2	1	5	226	RTPJ	327.82968878746	0	84.6120824857426	0.936425171731903	-0.000206669164722249	13.4258631483804	1128.33832709114	0	617.388920574718	0.560197180535558	-0.000182402832952897	13.1828828120333	937.726364335127	0	8	0	0	1	0	0
481.210687536001	6.23302722668649	panas_none	487.443714762688	93	5	16	10	n/a	n/a	n/a	n/a	n/a	n/a	n/a	n/a	2000	0	BLOCKED	n/a	n/a	+	0	nervous	At this moment	4	1	5	226	NONE	n/a	0	854.680738304281	-0.140316371558345	7.38897444744696e-05	8.57955800026138	889.724094881398	0	866.876703667854	0.147155630432515	-0.000128838620945978	19.4641199849255	881.62951575711	2	1	0	1	0	0	0
488.444623808861	6.5386847178936	panas_none	494.983308526754	94	5	16	10	n/a	n/a	n/a	n/a	n/a	n/a	n/a	n/a	2000	0	BLOCKED	n/a	n/a	+	0	distressed	At this moment	2	1	5	226	NONE	n/a	0.0424469413233458	1263.56546717327	-0.409890121819847	0.00015106253654226	13.7971652596136	1072.62059973924	0	1133.36252395266	-0.110206992271146	5.3808156840224e-05	12.0428556318875	1085.81322059954	1	2	0	1	0	0	0
495.972946174145	6.46629352736471	panas_none	502.439239701509	95	5	16	10	n/a	n/a	n/a	n/a	n/a	n/a	n/a	n/a	2000	0	BLOCKED	n/a	n/a	+	0	jittery	At this moment	5	1	5	226	NONE	n/a	0	-552.357510111529	1.55959750382642	-0.000380392613512615	23.2204483953402	1027.66416978777	0	1273.27052864138	-0.0806619203177181	3.907143007715e-05	17.1033899506247	1237.89853958493	2	3	0	1	0	0	0
503.423246762514	13.6946785526275	panas_none	517.117925315142	96	5	16	10	n/a	n/a	n/a	n/a	n/a	n/a	n/a	n/a	2000	0	BLOCKED	n/a	n/a	+	0	ashamed	At this moment	3	1	5	226	NONE	n/a	0	-311.024614888587	1.37557183785315	-0.0003019376640209	16.3758513929493	1230.02871410737	0	884.638171419446	-0.0309906042712147	0.000169037345230447	36.084944014804	1005.80092236741	0	4	0	1	0	0	0
