onset	duration	trial_type	offset	trial	block	blockCntr	frequency	amplitude_1	amplitude_2	amplitude_3	amplitude_4	amplitude_5	amplitude_6	amplitude_7	amplitude_8	transition	sham	mode	rewardFraction	guess	outcome	correct	word	when	answer	runNr	scanNr	subjectNr	target	reactionTime	outcomeEyeClosed	outcomePupilArea	outcomeDilation	guessEyeClosed	guessPupilArea	guessDilation	nrBlinks	trialInBlock	isReward	isPanas	isPunish	beforePanasReward	beforePanasVLPFC
20.6244365622997	2.65864815855026	punish_vlpfc	23.28308472085	1	4	1	10	0	0	0	0	250	250	250	750	2000	0	BLOCKED	0.25	-1	9	-1	n/a	n/a	n/a	1	4	226	VLPFC	1594.59353661537	0	1801.76654182272	-0.1725	0	1751.3335895465	0.327692307692308	0	1	0	0	1	0	0
24.2960744218826	2.53980075025558	punish_vlpfc	26.8358751721382	2	4	1	10	0	0	0	0	250	250	250	750	2000	0	BLOCKED	0.25	1	0	-1	n/a	n/a	n/a	1	4	226	VLPFC	1495.7067129612	0	1906.44694132335	-0.08875	0	1686.07225211376	0.424615384615385	0	2	0	0	1	0	0
27.8478747253418	2.65798629641533	punish_vlpfc	30.5058610217571	3	4	1	10	0	0	0	0	250	250	250	750	2000	0	BLOCKED	0.25	1	9	1	n/a	n/a	n/a	1	4	226	VLPFC	340.559158563614	0.374531835205993	1786.06586826347	-0.501002004008016	0	1753.64565718678	0.383076923076923	1	3	0	0	1	0	0
31.4948269338608	2.61374204468727	punish_vlpfc	34.108568978548	4	4	1	10	0	0	0	0	250	250	250	750	2000	0	BLOCKED	0.25	1	1	-1	n/a	n/a	n/a	1	4	226	VLPFC	289.354249000549	0.456928838951311	1872.53103448276	-0.515011547344111	0	1681.26902382782	0.423076923076923	1	4	0	0	1	0	0
35.1109255170822	2.65061413526535	punish_vlpfc	37.7615396523476	5	4	1	10	0	0	0	0	250	250	250	750	2000	0	BLOCKED	0.25	-1	10	-1	n/a	n/a	n/a	1	4	226	VLPFC	266.99692773819	0	1714.11610486891	-0.22	0	1646.32974634896	0.342307692307692	0	5	0	0	1	0	0
38.7683564422131	2.62952799749374	punish_vlpfc	41.3978844397068	6	4	1	10	0	0	0	0	250	250	250	750	2000	0	BLOCKED	0.25	1	1	-1	n/a	n/a	n/a	1	4	226	VLPFC	267.358007192612	0	1696.4556803995	-0.095	0	1543.18677940046	0.405384615384615	0	6	0	0	1	0	0
42.3986891114712	2.63538566946983	punish_vlpfc	45.034074780941	7	4	1	10	0	0	0	0	250	250	250	750	2000	0	BLOCKED	0.25	1	10	1	n/a	n/a	n/a	1	4	226	VLPFC	467.646166086197	0	1585.37702871411	-0.37625	0	1588.03382013836	0.301538461538462	0	7	0	0	1	0	0
46.0183653457165	2.56860637688637	punish_vlpfc	48.5869717226028	8	4	1	10	0	0	0	0	250	250	250	750	2000	0	BLOCKED	0.25	-1	7	-1	n/a	n/a	n/a	1	4	226	VLPFC	311.480959177017	0	1760.63171036205	0.10625	0	1571.69254419677	0.333846153846154	0	8	0	0	1	0	0
49.6619313743115	6.23121477603912	panas_none	55.8931461503506	9	5	2	n/a	n/a	n/a	n/a	n/a	n/a	n/a	n/a	n/a	n/a	n/a	n/a	n/a	n/a	n/a	n/a	jittery	At this moment	5	1	4	226	NONE	n/a	0	1089.3645443196	0.2375	0	1248.48808608762	-0.356923076923077	0	1	0	1	0	0	1
56.8954117138386	6.43707569169998	panas_none	63.3324874055386	10	5	2	n/a	n/a	n/a	n/a	n/a	n/a	n/a	n/a	n/a	n/a	n/a	n/a	n/a	n/a	n/a	n/a	inspired	At this moment	2	1	4	226	NONE	n/a	0	1358.1897627965	0	0	1442.41506533436	0.0915384615384615	1	2	0	1	0	0	1
64.3399061121941	6.28173631381989	panas_none	70.6216424260139	11	5	2	n/a	n/a	n/a	n/a	n/a	n/a	n/a	n/a	n/a	n/a	n/a	n/a	n/a	n/a	n/a	n/a	afraid	At this moment	3	1	4	226	NONE	n/a	0	1430.93508114856	-0.3225	0	1529.32052267487	0.0646153846153846	0	3	0	1	0	0	1
71.613846419096	13.5196141383648	panas_none	85.1334605574608	12	5	2	n/a	n/a	n/a	n/a	n/a	n/a	n/a	n/a	n/a	n/a	n/a	n/a	n/a	n/a	n/a	n/a	n/a	n/a	n/a	1	4	226	NONE	n/a	0	1686.93508114856	0.15375	0	1542.35434281322	0.138461538461538	0	4	0	1	0	0	1
86.1419293575287	2.59442815923691	reward_vlpfc	88.7363575167656	13	2	3	10	0	0	0	0	250	250	250	750	2000	0	BLOCKED	0.75	-1	2	1	n/a	n/a	n/a	1	4	226	VLPFC	678.746616363525	0	1649.15730337079	-0.47	0	1370.96387394312	0.403846153846154	0	1	1	0	0	0	0
89.7245875174999	2.59796243858337	reward_vlpfc	92.3225499560833	14	2	3	10	0	0	0	0	250	250	250	750	2000	0	BLOCKED	0.75	-1	1	1	n/a	n/a	n/a	1	4	226	VLPFC	281.569173336029	0	1549.59176029963	-0.5225	0	1543.88086087625	0.253076923076923	0	2	1	0	0	0	0
93.3067227468491	2.68540966486931	reward_vlpfc	95.9921324117184	15	2	3	10	0	0	0	0	250	250	250	750	2000	0	BLOCKED	0.75	1	10	1	n/a	n/a	n/a	1	4	226	VLPFC	537.488288879395	0	1598.10237203496	-0.67	0	1449.43351268255	0.37	0	3	1	0	0	0	0
96.9811388750076	2.69732776331901	reward_vlpfc	99.6784666383266	16	2	3	10	0	0	0	0	250	250	250	750	2000	0	BLOCKED	0.75	-1	10	-1	n/a	n/a	n/a	1	4	226	VLPFC	407.429426431656	0	1633.63670411985	-0.19375	0	1477.98616448885	0.285384615384615	0	4	1	0	0	0	0
100.670185783386	2.6278992600441	reward_vlpfc	103.29808504343	17	2	3	10	0	0	0	0	250	250	250	750	2000	0	BLOCKED	0.75	-1	2	1	n/a	n/a	n/a	1	4	226	VLPFC	556.749633789062	0	1515.02247191011	-0.405	0	1337.04304381245	0.173846153846154	0	5	1	0	0	0	0
104.282367498159	2.58526470422746	reward_vlpfc	106.867632202387	18	2	3	10	0	0	0	0	250	250	250	750	2000	0	BLOCKED	0.75	-1	0	1	n/a	n/a	n/a	1	4	226	VLPFC	488.208314657211	0	1630.99001248439	-0.58	0	1498.74173712529	0.374615384615385	0	6	1	0	0	0	0
107.856866808653	2.74718003439902	reward_vlpfc	110.604046843052	19	2	3	10	0	0	0	0	250	250	250	750	2000	0	BLOCKED	0.75	1	6	1	n/a	n/a	n/a	1	4	226	VLPFC	333.766699314117	0	1583.18352059925	-0.5175	0	1518.94773251345	0.392307692307692	0	7	1	0	0	0	0
111.606459447861	2.70070548057556	reward_vlpfc	114.307164928436	20	2	3	10	0	0	0	0	250	250	250	750	2000	0	BLOCKED	0.75	1	1	-1	n/a	n/a	n/a	1	4	226	VLPFC	357.719964981079	0	1720.0986267166	0.06875	0	1540.31283627978	0.344615384615385	0	8	1	0	0	0	0
115.295651281834	6.267300178051	panas_none	121.562951459885	21	5	4	n/a	n/a	n/a	n/a	n/a	n/a	n/a	n/a	n/a	n/a	n/a	n/a	n/a	n/a	n/a	n/a	inspired	At this moment	2	1	4	226	NONE	n/a	0	1114.61922596754	0.115	0	1209.74404304381	-0.415384615384615	2	1	0	1	0	1	1
122.565333034277	6.27019481015205	panas_none	128.835527844429	22	5	4	n/a	n/a	n/a	n/a	n/a	n/a	n/a	n/a	n/a	n/a	n/a	n/a	n/a	n/a	n/a	n/a	active	At this moment	2	1	4	226	NONE	n/a	0	1268.53058676654	-0.07625	0	1432.42198308993	0.0176923076923077	0	2	0	1	0	1	1
129.824512798071	6.33638346934319	panas_none	136.160896267414	23	5	4	n/a	n/a	n/a	n/a	n/a	n/a	n/a	n/a	n/a	n/a	n/a	n/a	n/a	n/a	n/a	n/a	interested	At this moment	4	1	4	226	NONE	n/a	0	1129.23096129838	-0.02625	0	1303.66179861645	0.00307692307692308	2	3	0	1	0	1	1
137.146491867542	8.55276717877388	panas_none	145.699259046316	24	5	4	n/a	n/a	n/a	n/a	n/a	n/a	n/a	n/a	n/a	n/a	n/a	n/a	n/a	n/a	n/a	n/a	n/a	n/a	n/a	1	4	226	NONE	n/a	0	1768.98626716604	-0.1075	0	1631.73174481168	0.175384615384615	0	4	0	1	0	1	1
146.703904421091	2.59830553483965	reward_vlpfc	149.302209955931	25	2	5	10	0	0	0	0	250	250	250	750	2000	0	BLOCKED	0.75	-1	1	1	n/a	n/a	n/a	1	4	226	VLPFC	415.550898790359	0	1723.55305867665	-0.41875	0	1574.25826287471	0.515384615384615	0	1	1	0	0	0	0
150.2915729146	2.61356291532516	reward_vlpfc	152.905135829926	26	2	5	10	0	0	0	0	250	250	250	750	2000	0	BLOCKED	0.75	-1	1	1	n/a	n/a	n/a	1	4	226	VLPFC	323.954781770706	0	1595.42446941323	-0.285	0	1670.42659492698	0.277692307692308	0	2	1	0	0	0	0
153.893979383945	2.66435173678397	reward_vlpfc	156.558331120729	27	2	5	10	0	0	0	0	250	250	250	750	2000	0	BLOCKED	0.75	-1	8	-1	n/a	n/a	n/a	1	4	226	VLPFC	428.703508615494	0	1702.2784019975	-0.05125	0	1554.80092236741	0.267692307692308	0	3	1	0	0	0	0
157.548073495388	2.64628752589226	reward_vlpfc	160.19436102128	28	2	5	10	0	0	0	0	250	250	250	750	2000	0	BLOCKED	0.75	1	8	1	n/a	n/a	n/a	1	4	226	VLPFC	288.711075782776	0	1618.93508114856	-0.35	0	1445.99692544197	0.310769230769231	0	4	1	0	0	0	0
161.17848056674	2.63549392294883	reward_vlpfc	163.813974489689	29	2	5	10	0	0	0	0	250	250	250	750	2000	0	BLOCKED	0.75	-1	0	1	n/a	n/a	n/a	1	4	226	VLPFC	398.486004114151	0	1531.23345817728	-0.3825	0	1463.02920830131	0.29	0	5	1	0	0	0	0
164.820609328985	2.57992608451841	reward_vlpfc	167.400535413504	30	2	5	10	0	0	0	0	250	250	250	750	2000	0	BLOCKED	0.75	-1	4	1	n/a	n/a	n/a	1	4	226	VLPFC	382.948293447495	0	1535.6304619226	-0.43875	0	1445.10760953113	0.200769230769231	0	6	1	0	0	0	0
168.401143677711	2.65204047036173	reward_vlpfc	171.053184148073	31	2	5	10	0	0	0	0	250	250	250	750	2000	0	BLOCKED	0.75	1	9	1	n/a	n/a	n/a	1	4	226	VLPFC	405.044678211212	0	1520.10237203496	-0.41125	0	1383.18985395849	0.373076923076923	0	7	1	0	0	0	0
172.070886574268	2.53517688488961	reward_vlpfc	174.606063459158	32	2	5	10	0	0	0	0	250	250	250	750	2000	0	BLOCKED	0.75	1	3	-1	n/a	n/a	n/a	1	4	226	VLPFC	724.721159219742	0	1651.77777777778	-0.1875	0	1500.97617217525	0.284615384615385	0	8	1	0	0	0	0
175.610659115076	6.28467890167238	panas_none	181.895338016748	33	5	6	n/a	n/a	n/a	n/a	n/a	n/a	n/a	n/a	n/a	n/a	n/a	n/a	n/a	n/a	n/a	n/a	enthusiastic	At this moment	4	1	4	226	NONE	n/a	0	1225.67665418227	0.39125	0	1272.96541122214	-0.225384615384615	1	1	0	1	0	1	1
182.87965009141	6.32169732832909	panas_none	189.201347419739	34	5	6	n/a	n/a	n/a	n/a	n/a	n/a	n/a	n/a	n/a	n/a	n/a	n/a	n/a	n/a	n/a	n/a	nervous	At this moment	4	1	4	226	NONE	n/a	0	1239.49063670412	0.1875	0	1453.7432744043	-0.117692307692308	0	2	0	1	0	1	1
190.192584537268	6.41471801757811	panas_none	196.607302554846	35	5	6	n/a	n/a	n/a	n/a	n/a	n/a	n/a	n/a	n/a	n/a	n/a	n/a	n/a	n/a	n/a	n/a	distressed	At this moment	3	1	4	226	NONE	n/a	0	1413.88888888889	0.08875	0	1431.53804765565	-0.0192307692307692	2	3	0	1	0	1	1
197.596505425692	7.75149853348731	panas_none	205.348003959179	36	5	6	n/a	n/a	n/a	n/a	n/a	n/a	n/a	n/a	n/a	n/a	n/a	n/a	n/a	n/a	n/a	n/a	n/a	n/a	n/a	1	4	226	NONE	n/a	0	1581.43820224719	0.28625	0	1243.48424289008	0.159230769230769	0	4	0	1	0	1	1
206.337164163351	2.66354389142992	reward_rtpj	209.000708054781	37	1	7	10	750	250	250	250	0	0	0	0	2000	0	BLOCKED	0.75	1	2	-1	n/a	n/a	n/a	1	4	226	RTPJ	451.983276128769	0	1769.93882646692	-0.1825	0	1523.92851652575	0.48	0	1	1	0	0	0	0
210.006475456715	2.63060947346688	reward_rtpj	212.637084930182	38	1	7	10	750	250	250	250	0	0	0	0	2000	0	BLOCKED	0.75	-1	0	1	n/a	n/a	n/a	1	4	226	RTPJ	335.666599273682	0	1545.53058676654	-0.2925	0	1470.8670253651	0.380769230769231	0	2	1	0	0	0	0
213.64387104249	2.64608618164061	reward_rtpj	216.289957224131	39	1	7	10	750	250	250	250	0	0	0	0	2000	0	BLOCKED	0.75	1	8	1	n/a	n/a	n/a	1	4	226	RTPJ	527.205980062485	0	1520.63920099875	-0.335	0	1429.93697156034	0.317692307692308	0	3	1	0	0	0	0
217.274138477564	2.66889167928696	reward_rtpj	219.943030156851	40	1	7	10	750	250	250	250	0	0	0	0	2000	0	BLOCKED	0.75	1	6	1	n/a	n/a	n/a	1	4	226	RTPJ	553.117327213287	0	1584.82646691635	-0.43125	0	1452.6956187548	0.309230769230769	0	4	1	0	0	0	0
220.932171672344	2.64706010961532	reward_rtpj	223.57923178196	41	1	7	10	750	250	250	250	0	0	0	0	2000	0	BLOCKED	0.75	-1	6	-1	n/a	n/a	n/a	1	4	226	RTPJ	486.512932777405	0	1580.20848938826	-0.3175	0	1490.17217524981	0.296923076923077	0	5	1	0	0	0	0
224.56386509037	2.61851577186584	reward_rtpj	227.182380862236	42	1	7	10	750	250	250	250	0	0	0	0	2000	0	BLOCKED	0.75	-1	4	1	n/a	n/a	n/a	1	4	226	RTPJ	410.06876373291	0	1417.84769038702	-0.45875	0	1452.65257494235	0.303076923076923	0	6	1	0	0	0	0
228.171723721743	2.63040636658667	reward_rtpj	230.802130088329	43	1	7	10	750	250	250	250	0	0	0	0	2000	0	BLOCKED	0.75	1	10	1	n/a	n/a	n/a	1	4	226	RTPJ	585.348979949951	0	1421.02496878901	-0.3725	0	1361.8186010761	0.363846153846154	0	7	1	0	0	0	0
231.792200043917	2.69619304203988	reward_rtpj	234.488393085957	44	1	7	10	750	250	250	250	0	0	0	0	2000	0	BLOCKED	0.75	-1	2	1	n/a	n/a	n/a	1	4	226	RTPJ	751.097608327866	0	1346.66916354557	-0.2325	0	1270.83704842429	0.263076923076923	0	8	1	0	0	0	0
235.488930121422	6.30554359602928	panas_none	241.794473717451	45	5	8	n/a	n/a	n/a	n/a	n/a	n/a	n/a	n/a	n/a	n/a	n/a	n/a	n/a	n/a	n/a	n/a	proud	At this moment	4	1	4	226	NONE	n/a	0	905.360799001248	0.11875	0	1017.67025365104	-0.141538461538462	0	1	0	1	0	1	0
242.801270760775	6.24870986294746	panas_none	249.049980623722	46	5	8	n/a	n/a	n/a	n/a	n/a	n/a	n/a	n/a	n/a	n/a	n/a	n/a	n/a	n/a	n/a	n/a	enthusiastic	At this moment	4	1	4	226	NONE	n/a	0	980.861423220974	-0.02375	0	1123.67255956956	0.0769230769230769	2	2	0	1	0	1	0
250.055787166119	6.40012955164909	panas_none	256.455916717768	47	5	8	n/a	n/a	n/a	n/a	n/a	n/a	n/a	n/a	n/a	n/a	n/a	n/a	n/a	n/a	n/a	n/a	strong	At this moment	3	1	4	226	NONE	n/a	0	1121.18352059925	-0.0275	0	1315.809377402	-0.0446153846153846	1	3	0	1	0	1	0
257.441963667154	7.78778175425532	panas_none	265.22974542141	48	5	8	n/a	n/a	n/a	n/a	n/a	n/a	n/a	n/a	n/a	n/a	n/a	n/a	n/a	n/a	n/a	n/a	n/a	n/a	n/a	1	4	226	NONE	n/a	0	1637.11860174782	0.49125	0	1395.33282090699	0.0584615384615385	0	4	0	1	0	1	0
266.218366474152	2.76456545782094	punish_rtpj	268.982931931973	49	3	9	10	750	250	250	250	0	0	0	0	2000	0	BLOCKED	0.25	-1	10	-1	n/a	n/a	n/a	1	4	226	RTPJ	674.363588094711	0	1568.32709113608	-0.25625	0	1234.92774788624	0.428461538461538	0	1	0	0	1	0	0
269.977157124996	2.65869435143469	punish_rtpj	272.635851476431	50	3	9	10	750	250	250	250	0	0	0	0	2000	0	BLOCKED	0.25	1	7	1	n/a	n/a	n/a	1	4	226	RTPJ	436.375394821167	0	1375.4481897628	-0.16375	0	1291.11375864719	0.349230769230769	0	2	0	0	1	0	0
273.636620533943	2.65248159408566	punish_rtpj	276.289102128029	51	3	9	10	750	250	250	250	0	0	0	0	2000	0	BLOCKED	0.25	-1	10	-1	n/a	n/a	n/a	1	4	226	RTPJ	439.985486268997	0	1445.52684144819	0.06	0	1300.95926210607	0.270769230769231	0	3	0	0	1	0	0
277.278168535948	2.68043847227096	punish_rtpj	279.958607008219	52	3	9	10	750	250	250	250	0	0	0	0	2000	0	BLOCKED	0.25	-1	9	-1	n/a	n/a	n/a	1	4	226	RTPJ	352.681069612503	0	1434.52309612984	-0.105	0	1289.17832436587	0.177692307692308	0	4	0	0	1	0	0
280.963684691429	2.71449244856836	punish_rtpj	283.678177139998	53	3	9	10	750	250	250	250	0	0	0	0	2000	0	BLOCKED	0.25	-1	4	1	n/a	n/a	n/a	1	4	226	RTPJ	450.441282510757	0	1340.61173533084	-0.38125	0	1221.82551883167	0.179230769230769	0	5	0	0	1	0	0
284.684214293718	2.74701183629037	punish_rtpj	287.431226130009	54	3	9	10	750	250	250	250	0	0	0	0	2000	0	BLOCKED	0.25	1	1	-1	n/a	n/a	n/a	1	4	226	RTPJ	409.256334543228	0	1319.33083645443	-0.2475	0	1173.49807840123	0.251538461538462	0	6	0	0	1	0	0
288.43662328434	2.59770820164675	punish_rtpj	291.034331485987	55	3	9	10	750	250	250	250	0	0	0	0	2000	0	BLOCKED	0.25	-1	7	-1	n/a	n/a	n/a	1	4	226	RTPJ	576.184818983078	0	1324.69288389513	-0.15875	0	1166.72559569562	0.283076923076923	0	7	0	0	1	0	0
292.023255084276	2.59703011941912	punish_rtpj	294.620285203695	56	3	9	10	750	250	250	250	0	0	0	0	2000	0	BLOCKED	0.25	1	0	-1	n/a	n/a	n/a	1	4	226	RTPJ	1159.49708342552	0	1301.63920099875	-0.1625	0	1210.61260568793	0.301538461538462	0	8	0	0	1	0	0
295.609119237185	6.33373672699929	panas_none	301.942855964184	57	5	10	n/a	n/a	n/a	n/a	n/a	n/a	n/a	n/a	n/a	n/a	n/a	n/a	n/a	n/a	n/a	n/a	strong	At this moment	2	1	4	226	NONE	n/a	0	902.692883895131	0.015	0	953.45426594927	-0.252307692307692	0	1	0	1	0	0	0
302.932292267323	6.50007598876948	panas_none	309.432368256092	58	5	10	n/a	n/a	n/a	n/a	n/a	n/a	n/a	n/a	n/a	n/a	n/a	n/a	n/a	n/a	n/a	n/a	guilty	At this moment	2	1	4	226	NONE	n/a	0.287141073657928	973.369527145359	-0.210526315789474	0	1052.02997694081	0.0207692307692308	2	2	0	1	0	0	0
310.437287261963	6.20461300444606	panas_none	316.641900266409	59	5	10	n/a	n/a	n/a	n/a	n/a	n/a	n/a	n/a	n/a	n/a	n/a	n/a	n/a	n/a	n/a	n/a	scared	At this moment	3	1	4	226	NONE	n/a	0	1012.19975031211	-0.1675	0	1127.46041506533	0.0915384615384615	0	3	0	1	0	0	0
317.642329401255	14.9090072107315	panas_none	332.551336611986	60	5	10	n/a	n/a	n/a	n/a	n/a	n/a	n/a	n/a	n/a	n/a	n/a	n/a	n/a	n/a	n/a	n/a	n/a	n/a	n/a	1	4	226	NONE	n/a	0	1323.71785268414	-0.07625	0	1141.35818601076	0.170769230769231	0	4	0	1	0	0	0
333.540594138384	2.79691312122344	punish_vlpfc	336.337507259607	61	4	11	10	0	0	0	0	250	250	250	750	2000	0	BLOCKED	0.25	-1	4	1	n/a	n/a	n/a	1	4	226	VLPFC	607.91081905365	0	1281.9163545568	-0.25875	0	1024.8001537279	0.387692307692308	0	1	0	0	1	0	0
337.326502086401	2.68088312196733	punish_vlpfc	340.007385208368	62	4	11	10	0	0	0	0	250	250	250	750	2000	0	BLOCKED	0.25	-1	9	-1	n/a	n/a	n/a	1	4	226	VLPFC	609.589627981186	0	1278.56179775281	-0.255	0	1084.81322059954	0.29	0	2	0	0	1	0	0
340.997922028542	2.5455790834427	punish_vlpfc	343.543501111984	63	4	11	10	0	0	0	0	250	250	250	750	2000	0	BLOCKED	0.25	-1	7	-1	n/a	n/a	n/a	1	4	226	VLPFC	541.030678033829	0	1246.49687890137	-0.19125	0	1088.70253651038	0.238461538461538	0	3	0	0	1	0	0
344.527597032309	2.6355686776638	punish_vlpfc	347.163165709972	64	4	11	10	0	0	0	0	250	250	250	750	2000	0	BLOCKED	0.25	-1	6	-1	n/a	n/a	n/a	1	4	226	VLPFC	704.996828079224	0	1252.3595505618	-0.0325	0	1095.40122982321	0.245384615384615	0	4	0	0	1	0	0
348.153357318401	2.72957634139061	punish_vlpfc	350.882933659792	65	4	11	10	0	0	0	0	250	250	250	750	2000	0	BLOCKED	0.25	1	1	-1	n/a	n/a	n/a	1	4	226	VLPFC	419.164164066315	0	1121.84269662921	-0.0875	0	1112.17832436587	0.203076923076923	0	5	0	0	1	0	0
351.869146691799	2.61675762414927	punish_vlpfc	354.485904315948	66	4	11	10	0	0	0	0	250	250	250	750	2000	0	BLOCKED	0.25	-1	10	-1	n/a	n/a	n/a	1	4	226	VLPFC	895.305576086044	0	1131.76029962547	-0.20125	0	1133.49577248271	0.231538461538462	0	6	0	0	1	0	0
355.470496720791	2.73508069109914	punish_vlpfc	358.20557741189	67	4	11	10	0	0	0	0	250	250	250	750	2000	0	BLOCKED	0.25	1	0	-1	n/a	n/a	n/a	1	4	226	VLPFC	432.234614372253	0	1170.62172284644	-0.20375	0	1076.1329746349	0.251538461538462	0	7	0	0	1	0	0
359.19688187933	2.72814330649373	punish_vlpfc	361.925025185823	68	4	11	10	0	0	0	0	250	250	250	750	2000	0	BLOCKED	0.25	-1	3	1	n/a	n/a	n/a	1	4	226	VLPFC	671.727777004242	0	1089.92634207241	-0.3625	0	1093.35049961568	0.223846153846154	0	8	0	0	1	0	0
362.909693403244	6.07107310819623	panas_none	368.98076651144	69	5	12	n/a	n/a	n/a	n/a	n/a	n/a	n/a	n/a	n/a	n/a	n/a	n/a	n/a	n/a	n/a	n/a	upset	At this moment	4	1	4	226	NONE	n/a	0	794.47191011236	0.04625	0	870.285165257494	-0.130769230769231	2	1	0	1	0	0	1
369.973312895775	6.21381842136384	panas_none	376.187131317139	70	5	12	n/a	n/a	n/a	n/a	n/a	n/a	n/a	n/a	n/a	n/a	n/a	n/a	n/a	n/a	n/a	n/a	active	At this moment	4	1	4	226	NONE	n/a	0	812.702871410737	-0.03875	0	937.069177555726	-0.0930769230769231	2	2	0	1	0	0	1
377.194460458994	6.41668526744843	panas_none	383.611145726442	71	5	12	n/a	n/a	n/a	n/a	n/a	n/a	n/a	n/a	n/a	n/a	n/a	n/a	n/a	n/a	n/a	n/a	distressed	At this moment	3	1	4	226	NONE	n/a	0	894.227215980025	0.11875	0	1128.24673328209	-0.15	0	3	0	1	0	0	1
384.610153815031	5.54223415946961	panas_none	390.152387974501	72	5	12	n/a	n/a	n/a	n/a	n/a	n/a	n/a	n/a	n/a	n/a	n/a	n/a	n/a	n/a	n/a	n/a	n/a	n/a	n/a	1	4	226	NONE	n/a	0	1259.12484394507	-0.045	0	1173.48885472713	0.0861538461538462	0	4	0	1	0	0	1
391.153967345715	2.59692680263515	reward_rtpj	393.75089414835	73	1	13	10	750	250	250	250	0	0	0	0	2000	0	BLOCKED	0.75	-1	0	1	n/a	n/a	n/a	1	4	226	RTPJ	474.005611419678	0	1060.20724094881	-0.2	0	1001.00153727902	0.210769230769231	0	1	1	0	0	0	0
394.755988757133	2.56444796586038	reward_rtpj	397.320436722994	74	1	13	10	750	250	250	250	0	0	0	0	2000	0	BLOCKED	0.75	-1	0	1	n/a	n/a	n/a	1	4	226	RTPJ	353.291096925735	0	1025.96878901373	-0.2325	0	1054.62336664105	0.139230769230769	0	2	1	0	0	0	0
398.304630671024	2.63544490909578	reward_rtpj	400.94007558012	75	1	13	10	750	250	250	250	0	0	0	0	2000	0	BLOCKED	0.75	1	8	1	n/a	n/a	n/a	1	4	226	RTPJ	613.337945222855	0	1106.3645443196	-0.32125	0	1080.61260568793	0.232307692307692	0	3	1	0	0	0	0
401.924315720558	2.53519451570509	reward_rtpj	404.459510236263	76	1	13	10	750	250	250	250	0	0	0	0	2000	0	BLOCKED	0.75	1	9	1	n/a	n/a	n/a	1	4	226	RTPJ	579.715219497681	0	1062.23845193508	-0.2625	0	1016.65411222137	0.273076923076923	0	4	1	0	0	0	0
405.447506099462	2.74873225426677	reward_rtpj	408.196238353729	77	1	13	10	750	250	250	250	0	0	0	0	2000	0	BLOCKED	0.75	-1	7	-1	n/a	n/a	n/a	1	4	226	RTPJ	610.964128494263	0	1157.04868913858	0.00625	0	996.060722521138	0.244615384615385	0	5	1	0	0	0	0
409.196850849152	2.58535497403147	reward_rtpj	411.782205823183	78	1	13	10	750	250	250	250	0	0	0	0	2000	0	BLOCKED	0.75	1	2	-1	n/a	n/a	n/a	1	4	226	RTPJ	329.713015556335	0.398252184769039	1197.89626556017	-0.297916666666667	0	1053.42352036895	0.235384615384615	1	6	1	0	0	0	0
412.766472762585	2.71877498078351	reward_rtpj	415.485247743368	79	1	13	10	750	250	250	250	0	0	0	0	2000	0	BLOCKED	0.75	1	6	1	n/a	n/a	n/a	1	4	226	RTPJ	623.148100376129	0	1061.3570536829	-0.32375	0	1156.57417371253	0.186153846153846	0	7	1	0	0	0	0
416.489779575825	2.61502451205251	reward_rtpj	419.104804087877	80	1	13	10	750	250	250	250	0	0	0	0	2000	0	BLOCKED	0.75	-1	0	1	n/a	n/a	n/a	1	4	226	RTPJ	524.955226182938	0	1075.75156054931	-0.265	0	1051.43504996157	0.260769230769231	0	8	1	0	0	0	0
420.107377838612	6.38915752410884	panas_none	426.49653536272	81	5	14	n/a	n/a	n/a	n/a	n/a	n/a	n/a	n/a	n/a	n/a	n/a	n/a	n/a	n/a	n/a	n/a	attentive	At this moment	5	1	4	226	NONE	n/a	0	825.347066167291	-0.05375	0	852.033820138355	-0.00461538461538462	2	1	0	1	0	1	0
427.497336155653	6.53638600850104	panas_none	434.033722164154	82	5	14	n/a	n/a	n/a	n/a	n/a	n/a	n/a	n/a	n/a	n/a	n/a	n/a	n/a	n/a	n/a	n/a	nervous	At this moment	3	1	4	226	NONE	n/a	0	864.448189762796	-0.10875	0	1147.73020753267	-0.0784615384615385	0	2	0	1	0	1	0
435.041153212547	6.3318431742191	panas_none	441.372996386766	83	5	14	n/a	n/a	n/a	n/a	n/a	n/a	n/a	n/a	n/a	n/a	n/a	n/a	n/a	n/a	n/a	n/a	distressed	At this moment	2	1	4	226	NONE	n/a	0	856.191011235955	-0.02	0	968.939277478862	-0.12	1	3	0	1	0	1	0
442.37920032835	8.48515571022034	panas_none	450.86435603857	84	5	14	n/a	n/a	n/a	n/a	n/a	n/a	n/a	n/a	n/a	n/a	n/a	n/a	n/a	n/a	n/a	n/a	n/a	n/a	n/a	1	4	226	NONE	n/a	0.374531835205993	1369.0878243513	-0.0721442885771543	0	1436.70407378939	-0.0823076923076923	1	4	0	1	0	1	0
451.852264805555	2.66476147747039	punish_rtpj	454.517026283026	85	3	15	10	750	250	250	250	0	0	0	0	2000	0	BLOCKED	0.25	1	0	-1	n/a	n/a	n/a	1	4	226	RTPJ	443.596283197403	0	1346.0936329588	-0.235	0	1217.23674096849	0.267692307692308	0	1	0	0	1	0	0
455.517728343487	2.75246117758752	punish_rtpj	458.270189521074	86	3	15	10	750	250	250	250	0	0	0	0	2000	0	BLOCKED	0.25	-1	0	1	n/a	n/a	n/a	1	4	226	RTPJ	489.543322086334	0	1232.76154806492	-0.3075	0	1218.98385857033	0.186153846153846	0	2	0	0	1	0	0
459.254129584551	2.61889236688614	punish_rtpj	461.873021951437	87	3	15	10	750	250	250	250	0	0	0	0	2000	0	BLOCKED	0.25	1	0	-1	n/a	n/a	n/a	1	4	226	RTPJ	341.212205171585	0	1293.79650436954	-0.1125	0.230591852421214	1087.33766233766	0.249249249249249	1	3	0	0	1	0	0
462.881265429258	2.69497721934317	punish_rtpj	465.576242648602	88	3	15	10	750	250	250	250	0	0	0	0	2000	0	BLOCKED	0.25	-1	3	1	n/a	n/a	n/a	1	4	226	RTPJ	452.019243001938	0	1201.5518102372	-0.3075	0	1084.09146810146	0.266153846153846	0	4	0	0	1	0	0
466.563857332468	2.63172762203214	punish_rtpj	469.1955849545	89	3	15	10	750	250	250	250	0	0	0	0	2000	0	BLOCKED	0.25	1	2	-1	n/a	n/a	n/a	1	4	226	RTPJ	314.996549844742	0	1143.83395755306	-0.10375	0	1088.21598770177	0.160769230769231	0	5	0	0	1	0	0
470.199518748522	2.68284367203711	punish_rtpj	472.882362420559	90	3	15	10	750	250	250	250	0	0	0	0	2000	0	BLOCKED	0.25	1	3	-1	n/a	n/a	n/a	1	4	226	RTPJ	521.264385461807	0	1108.80898876404	-0.0125	0	1092.86395080707	0.177692307692308	0	6	0	0	1	0	0
473.887311398506	2.59749486851695	punish_rtpj	476.484806267023	91	3	15	10	750	250	250	250	0	0	0	0	2000	0	BLOCKED	0.25	-1	7	-1	n/a	n/a	n/a	1	4	226	RTPJ	342.390650987625	0	1156.83395755306	-0.04375	0	1050.89469638739	0.187692307692308	0	7	0	0	1	0	0
477.47479688406	2.73279397034645	punish_rtpj	480.207590854406	92	3	15	10	750	250	250	250	0	0	0	0	2000	0	BLOCKED	0.25	1	3	-1	n/a	n/a	n/a	1	4	226	RTPJ	327.82968878746	0	1127.74032459426	0.07375	0	935.899308224443	0.217692307692308	0	8	0	0	1	0	0
481.210687536001	6.23302722668649	panas_none	487.443714762688	93	5	16	n/a	n/a	n/a	n/a	n/a	n/a	n/a	n/a	n/a	n/a	n/a	n/a	n/a	n/a	n/a	n/a	nervous	At this moment	4	1	4	226	NONE	n/a	0	888.153558052435	0.1725	0	882.702536510377	-0.13	2	1	0	1	0	0	0
488.444623808861	6.5386847178936	panas_none	494.983308526754	94	5	16	n/a	n/a	n/a	n/a	n/a	n/a	n/a	n/a	n/a	n/a	n/a	n/a	n/a	n/a	n/a	n/a	distressed	At this moment	2	1	4	226	NONE	n/a	0.0149812734082397	1072.23574144487	0.177664974619289	0	1086.35588009224	-0.0384615384615385	1	2	0	1	0	0	0
495.972946174145	6.46629352736471	panas_none	502.439239701509	95	5	16	n/a	n/a	n/a	n/a	n/a	n/a	n/a	n/a	n/a	n/a	n/a	n/a	n/a	n/a	n/a	n/a	jittery	At this moment	5	1	4	226	NONE	n/a	0	1030.79775280899	-0.20625	0	1238.71560338201	-0.0430769230769231	2	3	0	1	0	0	0
503.423246762514	13.6946785526275	panas_none	517.117925315142	96	5	16	n/a	n/a	n/a	n/a	n/a	n/a	n/a	n/a	n/a	n/a	n/a	n/a	n/a	n/a	n/a	n/a	n/a	n/a	n/a	1	4	226	NONE	n/a	0	1229.58426966292	0.035	0	1004.43966179862	0.139230769230769	0	4	0	1	0	0	0
