onset	duration	trial_type	offset	trial	block	blockCntr	frequency	amplitude_1	amplitude_2	amplitude_3	amplitude_4	amplitude_5	amplitude_6	amplitude_7	amplitude_8	transition	sham	mode	rewardFraction	guess	outcome	correct	word	when	answer	runNr	scanNr	subjectNr	target	reactionTime	outcomeEyeClosed	outcomeParms_1	outcomeParms_2	outcomeParms_3	outcomeSigma	outcomePupilArea	guessEyeClosed	guessParms_1	guessParms_2	guessParms_3	guessSigma	guessPupilArea	nrBlinks	trialInBlock	isReward	isPanas	isPunish	beforePanasReward	beforePanasVLPFC
20.3451125004292	2.5084467613697	reward_vlpfc	22.8535592617989	1	2	1	10	0	0	0	0	250	250	250	750	2000	0	BLOCKED	0.75	1	10	1	excited	At this moment	2	3	12	226	VLPFC	613.912358522415	0	11896.0715530649	-9.03208509832931	0.00196247475182121	11.3624046927711	1677.56429463171	0	1484.26701723705	-0.060421597791869	0.000260668761986212	17.0663370461461	1657.66256725596	0	1	1	0	0	0	0
23.8543819172382	2.51865748858452	reward_vlpfc	26.3730394058228	2	2	1	10	0	0	0	0	250	250	250	750	2000	0	BLOCKED	0.75	1	8	1	upset	At this moment	5	3	12	226	VLPFC	308.084200620651	0	11746.0305946876	-8.76983621812312	0.00189266536585121	13.9060743600601	1747.42696629213	0	1305.47724539528	0.376502500961523	3.38288709216197e-05	12.2512285861721	1654.85933897002	0	2	1	0	0	0	0
27.374012980938	2.53533133125305	reward_vlpfc	29.909344312191	3	2	1	10	0	0	0	0	250	250	250	750	2000	0	BLOCKED	0.75	-1	2	1	inspired	At this moment	4	3	12	226	VLPFC	410.997204303741	0	12037.6833496902	-8.75189961185237	0.00184194998658534	13.5477013784713	1833.68789013733	0	1345.05004890088	0.549613092907941	-7.1322072072162e-05	11.3670702583583	1750.476556495	0	3	1	0	0	0	0
30.9100971493721	2.5187241332531	reward_vlpfc	33.4288212826252	4	2	1	10	0	0	0	0	250	250	250	750	2000	0	BLOCKED	0.75	-1	0	1	hostile	At this moment	3	3	12	226	VLPFC	492.257766962051	0	12763.5147313466	-9.83646596382164	0.00216788583484988	11.3697296702234	1758.02996254682	0	1297.37638833509	0.717176205595694	-0.000164845962760336	14.715951176849	1764.64335126826	0	4	1	0	0	0	0
34.4295871665478	2.5187195494175	reward_vlpfc	36.9483067159653	5	2	1	10	0	0	0	0	250	250	250	750	2000	0	BLOCKED	0.75	1	2	-1	guilty	At this moment	4	3	12	226	VLPFC	558.331473350525	0	4652.43373790295	-2.27923170313953	0.000461180915258089	33.8982276477718	1924.37578027466	0	1232.2640290917	0.5428289521896	2.10970135668758e-06	25.7298671868692	1695.68639508071	0	5	1	0	0	0	0
37.9324244983196	2.51871249723435	reward_vlpfc	40.451136995554	6	2	1	10	0	0	0	0	250	250	250	750	2000	0	BLOCKED	0.75	1	2	-1	determined	At this moment	3	3	12	226	VLPFC	390.209733009338	0	3927.11799332627	-1.82921030650254	0.000430774737171158	12.5151959322319	2008.58551810237	0	1419.1736088206	0.31572763926018	6.65739813156924e-05	17.297359621327	1744.91237509608	0	6	1	0	0	0	0
41.4519155733585	2.51876468420029	reward_vlpfc	43.9706802575588	7	2	1	10	0	0	0	0	250	250	250	750	2000	0	BLOCKED	0.75	1	8	1	irritable	At this moment	3	3	12	226	VLPFC	356.797166824341	0	12066.9204322578	-8.93656968909299	0.0018969263178916	10.8650726442914	1731.33083645443	0	1329.70794055813	0.322402503486178	5.44758665292314e-05	18.1515664591324	1650.79477325135	0	7	1	0	0	0	0
44.9715325329304	2.51869662904739	reward_vlpfc	47.4902291619778	8	2	1	10	0	0	0	0	250	250	250	750	2000	0	BLOCKED	0.75	1	7	1	scared	At this moment	5	3	12	226	VLPFC	473.784520626068	0	10283.3633581312	-7.62474286120597	0.00167239484454128	10.1198783289673	1710.76154806492	0	1265.32849546265	0.700094344748577	-0.000219996275720122	10.7688203614253	1670.3520368947	0	8	1	0	0	0	0
48.4909894042015	6.00487528109551	panas_none	54.495864685297	9	5	2	10	n/a	n/a	n/a	n/a	n/a	n/a	n/a	n/a	2000	0	BLOCKED	n/a	n/a	+	0	distressed	At this moment	3	3	12	226	NONE	n/a	0	2030.69386262895	-0.951827980949358	0.000258444287709442	7.26871826631999	1185.21722846442	0	1785.14224005669	-1.0759132853587	0.000518119781870619	47.5773968627007	1317.8193697156	1	1	0	1	0	1	1
55.480055811882	6.00478148508072	panas_none	61.4848372969627	10	5	2	10	n/a	n/a	n/a	n/a	n/a	n/a	n/a	n/a	2000	0	BLOCKED	n/a	n/a	+	0	alert	At this moment	5	3	12	226	NONE	n/a	0.348314606741573	n/a	n/a	n/a	n/a	1228.52107279693	0	1112.74077732271	0.146382643135963	-5.93926139672007e-05	10.003505048373	1185.82321291314	2	2	0	1	0	1	1
62.4693701095581	6.00458049368859	panas_none	68.4739506032467	11	5	2	10	n/a	n/a	n/a	n/a	n/a	n/a	n/a	n/a	2000	0	BLOCKED	n/a	n/a	+	0	irritable	At this moment	4	3	12	226	NONE	n/a	0	963.220438909619	0.185625854832554	-1.09539727715089e-05	8.90130020283086	1304.03745318352	0.0999231360491929	948.651265398325	1.0671854551718	-0.000578724238127044	19.5316122657388	1377.01622544833	1	3	0	1	0	1	1
69.4579231073856	10.2417805883884	panas_none	79.6997036957741	12	5	2	10	n/a	n/a	n/a	n/a	n/a	n/a	n/a	n/a	2000	0	BLOCKED	n/a	n/a	+	0	guilty	At this moment	5	3	12	226	NONE	n/a	0	1068.70063505467	0.776667586933812	-0.000128226847574881	9.90577159072249	2127.50811485643	0	1395.72019001084	0.211274191244773	0.000123855232901204	11.2123538100766	1682.00153727902	0	4	0	1	0	1	1
80.6838151314259	2.51880558776855	reward_rtpj	83.2026207191944	13	1	3	10	750	250	250	250	0	0	0	0	2000	0	BLOCKED	0.75	-1	2	1	inspired	At this moment	4	3	12	226	RTPJ	507.563103437424	0	11973.7706405228	-8.67443871421518	0.00183485490201395	14.2577892280806	1907.06491885144	0	1041.93167615804	1.03527747912078	-0.0002139508866985	20.398054555637	1738.99385088394	0	1	1	0	0	0	0
84.1867645952702	2.51862575316429	reward_rtpj	86.7053903484344	14	1	3	10	750	250	250	250	0	0	0	0	2000	0	BLOCKED	0.75	-1	8	-1	nervous	At this moment	2	3	12	226	RTPJ	606.780329227448	0	4783.75348674658	-2.60986652669101	0.000579956819677391	28.0547980423745	1891.77777777778	0	1243.73377339089	0.707311860557935	-0.00013675067580181	28.786393131363	1726.73558800922	0	2	1	0	0	0	0
87.689546918869	2.51871884393692	reward_rtpj	90.2082657628059	15	1	3	10	750	250	250	250	0	0	0	0	2000	0	BLOCKED	0.75	-1	2	1	enthusiastic	At this moment	3	3	12	226	RTPJ	391.061302661896	0	11927.7976395777	-8.88081812380851	0.00191164887207647	9.42544179216918	1779.77153558052	0	1273.50400310468	0.539382820204639	-2.90426890226465e-05	14.1143598488406	1706.75172943889	0	3	1	0	0	0	0
91.1924075233936	2.51869451355934	reward_rtpj	93.711102036953	16	1	3	10	750	250	250	250	0	0	0	0	2000	0	BLOCKED	0.75	1	7	1	distressed	At this moment	5	3	12	226	RTPJ	390.844796180725	0	11806.4687989424	-8.6243294824212	0.00180312216618883	12.0465714784462	1708.87016229713	0	1333.62972010566	0.438452320125587	-2.22936694213573e-05	8.13542027944468	1686.97386625673	0	4	1	0	0	0	0
94.7118633368015	2.53544734191895	reward_rtpj	97.2473106787205	17	1	3	10	750	250	250	250	0	0	0	0	2000	0	BLOCKED	0.75	-1	0	1	excited	At this moment	2	3	12	226	RTPJ	490.238682746887	0	5708.39078055342	-3.11874183079413	0.000565818254176503	50.2447406577316	1683.71285892634	0	1244.09664016169	0.563012621371922	-0.00011605232237811	13.1493165043323	1622.31667947733	0	5	1	0	0	0	0
98.2481477913856	2.51869133996964	reward_rtpj	100.766839131355	18	1	3	10	750	250	250	250	0	0	0	0	2000	0	BLOCKED	0.75	1	9	1	irritable	At this moment	4	3	12	226	RTPJ	573.55112361908	0	9820.88895411467	-7.18044544581741	0.00155558383731453	10.9157831643364	1660.16978776529	0	1239.30682404615	0.398443789354836	-2.71019947423762e-05	22.0353734803659	1554.60722521138	0	6	1	0	0	0	0
101.750999228001	2.5186853454113	reward_rtpj	104.269684573412	19	1	3	10	750	250	250	250	0	0	0	0	2000	0	BLOCKED	0.75	-1	7	-1	interested	At this moment	5	3	12	226	RTPJ	506.814497709274	0	2373.5015367402	-0.649642821469232	0.000163785058386044	14.6262853652963	1740.34956304619	0	1028.51839491017	0.62075072689663	-0.000107779799093263	18.8808537356557	1463.47809377402	0	7	1	0	0	0	0
105.270450457335	2.51865889930725	reward_rtpj	107.789109356642	20	1	3	10	750	250	250	250	0	0	0	0	2000	0	BLOCKED	0.75	-1	1	1	nervous	At this moment	1	3	12	226	RTPJ	506.739037752151	0	4607.24520390648	-2.29322182847946	0.000440915796482744	34.8071710910177	1759.29213483146	0	1301.55439585938	0.0413297507412042	0.000259251148966729	39.8344206593158	1560.3051498847	0	8	1	0	0	0	0
108.791930644512	6.00305401468277	panas_none	114.794984659195	21	5	4	10	n/a	n/a	n/a	n/a	n/a	n/a	n/a	n/a	2000	0	BLOCKED	n/a	n/a	+	0	determined	At this moment	5	3	12	226	NONE	n/a	0	2281.14550523279	-1.18594834399356	0.000284328757590393	6.82979177925568	1059.75780274657	0	1837.63469974951	-0.805200951057449	0.000295479121775729	46.9760733130908	1407.80476556495	1	1	0	1	0	1	0
115.795605617523	6.00515208554268	panas_none	121.800757703066	22	5	4	10	n/a	n/a	n/a	n/a	n/a	n/a	n/a	n/a	2000	0	BLOCKED	n/a	n/a	+	0	alert	At this moment	4	3	12	226	NONE	n/a	0	1970.08939588284	-0.491071939408345	0.000128714587031352	12.6741593375656	1513.57178526841	0	1779.74867694732	-0.17878000115419	1.3802705492885e-05	27.2657190632997	1640.32590315142	1	2	0	1	0	1	0
122.784779573679	6.00484707188605	panas_none	128.789626645565	23	5	4	10	n/a	n/a	n/a	n/a	n/a	n/a	n/a	n/a	2000	0	BLOCKED	n/a	n/a	+	0	jittery	At this moment	4	3	12	226	NONE	n/a	0.233458177278402	3154.09024136816	-1.64553736650282	0.000359847441367831	6.94697099096584	1312.08143322476	0	1683.89284595446	-0.208523312545432	5.42114823274627e-05	8.52893153963097	1553.33973866257	1	3	0	1	0	1	0
129.773690124989	14.0948490078449	panas_none	143.868539132833	24	5	4	10	n/a	n/a	n/a	n/a	n/a	n/a	n/a	n/a	2000	0	BLOCKED	n/a	n/a	+	0	excited	At this moment	5	3	12	226	NONE	n/a	0	2823.16979817007	-1.02327410038961	0.000288732413556474	8.88994716041885	1962.74656679151	0	2168.47494441143	-0.69640825860035	0.000380093635037425	26.8407838814979	1904.02920830131	0	4	0	1	0	1	0
144.852642810583	2.51880100393294	punish_vlpfc	147.371443814516	25	4	5	10	0	0	0	0	250	250	250	750	2000	0	BLOCKED	0.25	1	1	-1	nervous	At this moment	4	3	12	226	VLPFC	323.132479429245	0	3552.33766126774	-1.21912509874915	0.000238164754578034	27.4390958466695	2055.16604244694	0	1119.65838092814	1.03022965962092	-0.000265493163554856	30.8089806431405	1767.04688700999	0	1	0	0	1	0	0
148.355549607992	2.51867758798599	punish_vlpfc	150.874227195978	26	4	5	10	0	0	0	0	250	250	250	750	2000	0	BLOCKED	0.25	-1	0	1	alert	At this moment	1	3	12	226	VLPFC	439.723844528198	0	6278.1643349959	-3.3795143103925	0.000609982637031409	52.3269413602907	1902.53058676654	0	1365.87187601874	0.732927985541882	-0.000149050532370219	19.4148434970761	1860.07686395081	0	2	0	0	1	0	0
151.875066776752	2.51867935109138	punish_vlpfc	154.393746127844	27	4	5	10	0	0	0	0	250	250	250	750	2000	0	BLOCKED	0.25	1	1	-1	active	At this moment	1	3	12	226	VLPFC	339.791511535645	0	4184.01955263871	-1.86012041511242	0.000393646736832029	27.5212946407474	2034.69163545568	0	1379.23083051618	0.416036178122264	5.38728359597476e-05	29.3998587903843	1780.32129131437	0	3	0	0	1	0	0
155.377982742071	2.51859190201762	punish_vlpfc	157.896574644089	28	4	5	10	0	0	0	0	250	250	250	750	2000	0	BLOCKED	0.25	1	1	-1	jittery	At this moment	5	3	12	226	VLPFC	340.11803483963	0	3175.84227885806	-0.853127097684722	0.00015713353359652	20.119130100501	2085.52059925094	0	1388.23877923083	0.390879394576487	6.89708049251319e-05	15.8295222335929	1779.89162182936	0	4	0	0	1	0	0
158.880708294392	2.51874000120162	punish_vlpfc	161.399448295593	29	4	5	10	0	0	0	0	250	250	250	750	2000	0	BLOCKED	0.25	1	9	1	strong	At this moment	2	3	12	226	VLPFC	256.638806343079	0	13000.3751543152	-9.68260924409754	0.00206581669467303	14.064095920341	1860.32209737828	0	1397.95034616121	0.431520991114363	2.29967567478582e-05	8.72890917193781	1784.66487317448	0	5	0	0	1	0	0
162.400244857073	2.55244030261039	punish_vlpfc	164.952685159683	30	4	5	10	0	0	0	0	250	250	250	750	2000	0	BLOCKED	0.25	-1	7	-1	inspired	At this moment	2	3	12	226	VLPFC	390.288013935089	0	1121.26095181993	1.10445524041765	-0.000312250561159834	27.9333898275731	2046.86766541823	0	1294.96343075754	0.514643690415969	-3.38254206023099e-05	16.2532416526161	1703.31283627978	0	6	0	0	1	0	0
165.953151672125	2.51871038126944	punish_vlpfc	168.471862053394	31	4	5	10	0	0	0	0	250	250	250	750	2000	0	BLOCKED	0.25	1	0	-1	proud	At this moment	1	3	12	226	VLPFC	356.980174779892	0	4483.85041768661	-2.33212883990658	0.000526071174860026	25.114025305809	1934.82771535581	0	1253.07338831633	0.69682056476812	-0.00013720354516348	13.406211119359	1727.19600307456	0	7	0	0	1	0	0
169.456019681454	2.51867511963843	punish_vlpfc	171.974694801092	32	4	5	10	0	0	0	0	250	250	250	750	2000	0	BLOCKED	0.25	-1	6	-1	jittery	At this moment	1	3	12	226	VLPFC	506.196712970734	0	4689.81799931937	-2.58513408163657	0.00059928535734026	16.4904847026723	1935.70411985019	0	1289.14856803934	0.63135371750801	-9.7310997841172e-05	19.9041295796215	1741.53881629516	0	8	0	0	1	0	0
172.975463505983	6.00499728655814	panas_none	178.980460792541	33	5	6	10	n/a	n/a	n/a	n/a	n/a	n/a	n/a	n/a	2000	0	BLOCKED	n/a	n/a	+	0	hostile	At this moment	3	3	12	226	NONE	n/a	0	2450.05896682388	-1.24221164240219	0.000327014849105369	8.22893173740102	1300.72784019975	0	1837.21376141999	-0.598833699524609	0.000212399243405592	64.366963462831	1513.285933897	1	1	0	1	0	0	1
179.964576459408	6.00490066933634	panas_none	185.969477128744	34	5	6	10	n/a	n/a	n/a	n/a	n/a	n/a	n/a	n/a	2000	0	BLOCKED	n/a	n/a	+	0	ashamed	At this moment	3	3	12	226	NONE	n/a	0	4063.70474406037	-2.39734382725858	0.000541535807114467	9.2993199691231	1446.34956304619	0	1829.53115969436	-0.157655289841195	2.28759883963258e-05	16.3748134476343	1715.47732513451	1	2	0	1	0	0	1
186.970118186235	6.00495638346672	panas_none	192.975074569702	35	5	6	10	n/a	n/a	n/a	n/a	n/a	n/a	n/a	n/a	2000	0	BLOCKED	n/a	n/a	+	0	excited	At this moment	4	3	12	226	NONE	n/a	0	1685.48118984685	-0.424383690022711	0.000110275449245742	6.62192398586412	1286.31210986267	0	1331.85202400534	-0.06988208216292	3.03945981448638e-05	15.1269521639844	1298.76633358955	1	3	0	1	0	0	1
193.975870425701	9.37435572504998	panas_none	203.350226150751	36	5	6	10	n/a	n/a	n/a	n/a	n/a	n/a	n/a	n/a	2000	0	BLOCKED	n/a	n/a	+	0	strong	At this moment	1	3	12	226	NONE	n/a	0	1042.44099821042	0.757288297128812	-0.000175077431510627	13.0549274907306	1851.24094881398	0.198308993082244	1553.82354024139	-0.0453626599902694	0.000105634914194374	21.9693890181754	1585.60115052732	1	4	0	1	0	0	1
204.351046690226	2.51873576951027	punish_vlpfc	206.869782459736	37	4	7	10	0	0	0	0	250	250	250	750	2000	0	BLOCKED	0.25	1	2	-1	distressed	At this moment	4	3	12	226	VLPFC	340.623334884644	0	3091.35416001655	-1.00298820249289	0.000192210961234801	22.1568862836748	1842.87390761548	0	1071.62162407672	0.348268687942119	0.000131700131894708	15.2970615746312	1481.6095311299	0	1	0	0	1	0	0
207.870458779097	2.51886835360528	punish_vlpfc	210.389327132702	38	4	7	10	0	0	0	0	250	250	250	750	2000	0	BLOCKED	0.25	-1	6	-1	hostile	At this moment	4	3	12	226	VLPFC	357.072560548782	0	2854.3363529312	-0.710472700441936	0.000130046043807138	27.3296575948335	1943.17353308365	0	1330.53518936967	0.464286510021958	-5.27991128788196e-05	9.85848976098275	1679.76095311299	0	2	0	0	1	0	0
211.373383559942	2.51873294854164	punish_vlpfc	213.892116508484	39	4	7	10	0	0	0	0	250	250	250	750	2000	0	BLOCKED	0.25	1	3	-1	afraid	At this moment	5	3	12	226	VLPFC	373.029180049896	0	1820.70332039302	0.129964654670124	-4.09283959182456e-05	17.3169077202478	1910.3695380774	0	1347.30110791565	0.582364817320606	-0.000159067282324368	12.5536319549102	1705.15372790161	0	3	0	0	1	0	0
214.876224770546	2.51883661818505	punish_vlpfc	217.395061388731	40	4	7	10	0	0	0	0	250	250	250	750	2000	0	BLOCKED	0.25	1	8	1	jittery	At this moment	3	3	12	226	VLPFC	257.030563592911	0	11305.7421827619	-8.39416353477596	0.00179712410744194	14.3060917526234	1677.70411985019	0	1293.37859379253	0.774541531227971	-0.000211475245040465	23.6530750766185	1769.24212144504	0	4	0	0	1	0	0
218.379039535046	2.51870791268348	punish_vlpfc	220.897747447729	41	4	7	10	0	0	0	0	250	250	250	750	2000	0	BLOCKED	0.25	-1	8	-1	attentive	At this moment	2	3	12	226	VLPFC	323.700192213058	0	2024.82500755892	-0.26857725008938	6.2074403223388e-05	10.7747687172375	1737.78277153558	0	1058.61976269155	0.749899754278489	-0.000172302576488491	24.5148077303495	1547.40199846272	0	5	0	0	1	0	0
221.882315169334	2.51838456344603	punish_vlpfc	224.40069973278	42	4	7	10	0	0	0	0	250	250	250	750	2000	0	BLOCKED	0.25	-1	10	-1	hostile	At this moment	4	3	12	226	VLPFC	323.11238026619	0	2653.58961165522	-0.559547669411254	7.05057231913896e-05	24.9732805015594	1792.78901373283	0	1181.32121513175	0.559927934677679	-0.000113559066216302	11.4392955180014	1559.41429669485	0	6	0	0	1	0	0
225.384766385794	2.5187696208954	punish_vlpfc	227.903536006689	43	4	7	10	0	0	0	0	250	250	250	750	2000	0	BLOCKED	0.25	1	4	-1	determined	At this moment	3	3	12	226	VLPFC	590.433010101318	0	1489.93947238743	0.41360444529448	-0.000102301814703654	21.106331962083	1901.79151061174	0	1232.74302142946	0.509844711064999	-8.30342010171407e-05	15.6281377269425	1594.22521137586	0	7	0	0	1	0	0
228.887553646088	2.51880452990534	punish_vlpfc	231.406358175993	44	4	7	10	0	0	0	0	250	250	250	750	2000	0	BLOCKED	0.25	-1	0	1	alert	At this moment	3	3	12	226	VLPFC	573.202032804489	0	4294.26571082539	-2.0024252474885	0.000353763131739858	33.2476384234954	1667.06367041198	0	1072.33823691895	0.854555038626043	-0.000237432519150402	25.4863436304392	1594.70714834743	0	8	0	0	1	0	0
232.407050010443	6.00496519851686	panas_none	238.41201520896	45	5	8	10	n/a	n/a	n/a	n/a	n/a	n/a	n/a	n/a	2000	0	BLOCKED	n/a	n/a	+	0	afraid	At this moment	4	3	12	226	NONE	n/a	0.586766541822722	n/a	n/a	n/a	n/a	1171.91238670695	0	1668.5612616297	-0.658717064065289	0.000281882507231213	34.014353149001	1351.5903151422	1	1	0	1	0	0	1
239.396174600124	6.0052906639576	panas_none	245.401465264082	46	5	8	10	n/a	n/a	n/a	n/a	n/a	n/a	n/a	n/a	2000	0	BLOCKED	n/a	n/a	+	0	strong	At this moment	4	3	12	226	NONE	n/a	0.294631710362047	n/a	n/a	n/a	n/a	1388.90973451327	0	1444.22624158831	0.331265593727141	-0.000224771949433075	21.2024785471592	1531.82244427364	2	2	0	1	0	0	1
246.385225845575	6.00486999201775	panas_none	252.390095837593	47	5	8	10	n/a	n/a	n/a	n/a	n/a	n/a	n/a	n/a	2000	0	BLOCKED	n/a	n/a	+	0	interested	At this moment	4	3	12	226	NONE	n/a	0	1501.97350572118	-0.41499419012775	0.000133781649438598	9.7567044305285	1227.97003745318	0	1162.42161103146	-0.179982801883723	0.000141299538668349	20.9795675389025	1131.50192159877	1	3	0	1	0	0	1
253.375724936008	14.9272738237381	panas_none	268.302998759747	48	5	8	10	n/a	n/a	n/a	n/a	n/a	n/a	n/a	n/a	2000	0	BLOCKED	n/a	n/a	+	0	nervous	At this moment	3	3	12	226	NONE	n/a	0.32334581772784	n/a	n/a	n/a	n/a	1693.38191881919	0.514219830899308	n/a	n/a	n/a	n/a	1321.2246835443	1	4	0	1	0	0	1
269.303859144926	2.51867829322811	punish_rtpj	271.822537438154	49	3	9	10	750	250	250	250	0	0	0	0	2000	0	BLOCKED	0.25	-1	6	-1	guilty	At this moment	3	3	12	226	RTPJ	439.965387105942	0	2782.42488916734	-0.786881471868388	0.000133189943542136	11.6935717745001	1724.67540574282	0	879.359731130418	0.686055190201001	-7.53952174459855e-05	14.4376652308363	1397.8378170638	0	1	0	0	1	0	0
272.80663970542	2.51875057959558	punish_rtpj	275.325390285015	50	3	9	10	750	250	250	250	0	0	0	0	2000	0	BLOCKED	0.25	1	9	1	distressed	At this moment	5	3	12	226	RTPJ	407.950946807861	0	9490.3888893085	-6.82200047555321	0.00144734334014439	12.1791810253634	1600.98002496879	0	1260.23425838341	0.397116355720127	-2.5148356423025e-05	26.37747298849	1575.95541890853	0	2	0	0	1	0	0
276.309439307213	2.51870685505867	punish_rtpj	278.828146162271	51	3	9	10	750	250	250	250	0	0	0	0	2000	0	BLOCKED	0.25	1	3	-1	interested	At this moment	1	3	12	226	RTPJ	290.445950984955	0	2180.2608473782	-0.368590080324166	8.59587052575719e-05	19.752200372927	1789.83895131086	0	1141.6312342913	0.601967115760467	-0.000112953406610653	16.3347672592213	1555.84089162183	0	3	0	0	1	0	0
279.812397233963	2.5186733567715	punish_rtpj	282.331070590734	52	3	9	10	750	250	250	250	0	0	0	0	2000	0	BLOCKED	0.25	1	0	-1	afraid	At this moment	1	3	12	226	RTPJ	306.652576208115	0	3524.18710510683	-1.60454805332992	0.000355867997184539	15.0558977395986	1743.18601747815	0	1111.9263521215	0.479123299355489	-1.30624481502035e-05	26.5301301850573	1507.69946195234	0	4	0	0	1	0	0
283.315317430973	2.5186049487591	punish_rtpj	285.833922379732	53	3	9	10	750	250	250	250	0	0	0	0	2000	0	BLOCKED	0.25	1	0	-1	enthusiastic	At this moment	5	3	12	226	RTPJ	356.552450418472	0	3865.80815807147	-1.98234159100038	0.000450833172278842	24.2998667756224	1715.49313358302	0	1147.41981163362	0.669780580312631	-0.000166466862818974	19.3940419134162	1572.97309761722	0	5	0	0	1	0	0
286.817994674444	2.51868992972373	punish_rtpj	289.336684604168	54	3	9	10	750	250	250	250	0	0	0	0	2000	0	BLOCKED	0.25	-1	9	-1	inspired	At this moment	3	3	12	226	RTPJ	373.722777605057	0	4997.77467818516	-2.84274081979281	0.000598323386263777	16.8303196701919	1695.66791510612	0	1139.21786207802	0.364178104272011	5.8283280185842e-05	16.2879769368459	1499.23674096849	0	6	0	0	1	0	0
290.320910640001	2.51870297646525	punish_rtpj	292.839613616467	55	3	9	10	750	250	250	250	0	0	0	0	2000	0	BLOCKED	0.25	1	4	-1	active	At this moment	3	3	12	226	RTPJ	473.556730270386	0	4622.40518490961	-2.71368241796494	0.000627290393903373	16.3616346314398	1723.57178526841	0	1215.28568318231	0.354410954631798	2.42810191146224e-05	10.7088194521893	1537.06379707917	0	7	0	0	1	0	0
293.823758197784	2.51877984666828	punish_rtpj	296.342538044453	56	3	9	10	750	250	250	250	0	0	0	0	2000	0	BLOCKED	0.25	1	6	1	ashamed	At this moment	1	3	12	226	RTPJ	906.672534227371	0	7253.48452764472	-4.79386283208259	0.000977782363681636	10.6462270452211	1532.36579275905	0	1047.1484805818	0.779526211956473	-0.000206631267291497	12.1407600583568	1531.66794773251	0	8	0	0	1	0	0
297.343311686039	6.00479735279083	panas_none	303.34810903883	57	5	10	10	n/a	n/a	n/a	n/a	n/a	n/a	n/a	n/a	2000	0	BLOCKED	n/a	n/a	+	0	excited	At this moment	4	3	12	226	NONE	n/a	0.0799001248439451	-1239.09679153345	1.9130282954128	-0.000358664300715721	13.1403446428843	1197.26594301221	0.176018447348194	1507.95400480412	-0.826182387063138	0.000508617313218875	9.64626274567115	1222.62126865672	2	1	0	1	0	0	0
304.332296639681	6.00488233327866	panas_none	310.33717897296	58	5	10	10	n/a	n/a	n/a	n/a	n/a	n/a	n/a	n/a	2000	0	BLOCKED	n/a	n/a	+	0	attentive	At this moment	4	3	12	226	NONE	n/a	0	2887.84022575256	-1.30409203411438	0.000239392728762436	13.2298627796877	1217.74656679151	0	1432.95406547461	0.0258398534768018	-1.82885399002001e-05	11.9765402817903	1439.07993850884	1	2	0	1	0	0	0
311.337888085604	6.00505864191058	panas_none	317.342946727514	59	5	10	10	n/a	n/a	n/a	n/a	n/a	n/a	n/a	n/a	2000	0	BLOCKED	n/a	n/a	+	0	guilty	At this moment	2	3	12	226	NONE	n/a	0	1877.53505513487	-0.768885991242189	0.000161122413276994	7.49380690523291	981.942571785268	0	1135.06539333019	0.00162528047696221	-2.87531971130055e-05	7.93248650656509	1111.41352805534	1	3	0	1	0	0	0
318.326973887444	13.8779695191383	panas_none	332.204943406582	60	5	10	10	n/a	n/a	n/a	n/a	n/a	n/a	n/a	n/a	2000	0	BLOCKED	n/a	n/a	+	0	ashamed	At this moment	3	3	12	226	NONE	n/a	0	2602.23108599093	-0.900655410450457	0.000184143457655495	10.323972715134	1532.54057428215	0.631053036126057	n/a	n/a	n/a	n/a	1103.6125	1	4	0	1	0	0	0
333.18897021389	2.51874000120165	reward_rtpj	335.707710215092	61	1	11	10	750	250	250	250	0	0	0	0	2000	0	BLOCKED	0.75	-1	1	1	determined	At this moment	4	3	12	226	RTPJ	390.538724660873	0	2330.64352717569	-0.432383034735081	2.11248422871656e-05	27.0256911138917	1517.01373283396	0.40814757878555	n/a	n/a	n/a	n/a	1210.97532467532	1	1	1	0	0	0	0
336.692000779867	2.51874035358429	reward_rtpj	339.210741133451	62	1	11	10	750	250	250	250	0	0	0	0	2000	0	BLOCKED	0.75	-1	8	-1	jittery	At this moment	1	3	12	226	RTPJ	389.948796510696	0	4249.99952763354	-2.29954853151961	0.000532749419253408	18.05045160361	1799.02996254682	0	1126.03168554171	0.688439913475239	-0.000152594948978436	14.6805699373367	1579.15449654112	0	2	1	0	0	0	0
340.19477464056	2.51877385234837	reward_rtpj	342.713548492909	63	1	11	10	750	250	250	250	0	0	0	0	2000	0	BLOCKED	0.75	-1	2	1	strong	At this moment	3	3	12	226	RTPJ	324.011905908585	0	10574.8352013196	-7.55659912732629	0.00157454108408848	13.0467516325997	1695.12983770287	0	1161.06239482284	0.699409364964813	-0.000141605848645326	15.529071386512	1633.15987701768	0	3	1	0	0	0	0
343.697552380323	2.51863738942143	reward_rtpj	346.216189769745	64	1	11	10	750	250	250	250	0	0	0	0	2000	0	BLOCKED	0.75	1	9	1	interested	At this moment	5	3	12	226	RTPJ	406.878638744354	0	6259.49314209066	-3.8899282852609	0.000776557868395802	33.999908023092	1554.29088639201	0	1169.10591249396	0.732340591021232	-0.000211432311224948	18.0937258791727	1608.94850115296	0	4	1	0	0	0	0
347.200349513769	2.51882639217376	reward_rtpj	349.719175905943	65	1	11	10	750	250	250	250	0	0	0	0	2000	0	BLOCKED	0.75	-1	3	1	proud	At this moment	2	3	12	226	RTPJ	357.620174407959	0	8854.02647182933	-6.329533285844	0.00134376354796507	13.6788479361042	1537.84019975031	0	1089.84727117919	0.537823756852668	-4.71849109856691e-05	23.0665195618584	1506.34973097617	0	5	1	0	0	0	0
350.703324366093	2.51868499302867	reward_rtpj	353.222009359121	66	1	11	10	750	250	250	250	0	0	0	0	2000	0	BLOCKED	0.75	1	9	1	attentive	At this moment	2	3	12	226	RTPJ	490.641018867493	0	10596.6620831546	-7.7340808634684	0.00161177465455768	11.4122840533971	1523.61548064919	0	1238.95187980398	0.250122545207516	8.65660581141124e-05	16.9063632262607	1526.35818601076	0	6	1	0	0	0	0
354.206208595991	2.51866841983792	reward_rtpj	356.724877015829	67	1	11	10	750	250	250	250	0	0	0	0	2000	0	BLOCKED	0.75	-1	0	1	active	At this moment	2	3	12	226	RTPJ	356.720648765564	0	7610.99711073489	-5.33585399149631	0.00111783290733471	10.5803474572839	1369.48064918851	0	1168.00343484791	0.138613132115216	4.85209702453109e-05	17.9702575621412	1327.31975403536	0	7	1	0	0	0	0
357.70893026948	2.51884296536446	reward_rtpj	360.227773234844	68	1	11	10	750	250	250	250	0	0	0	0	2000	0	BLOCKED	0.75	1	0	-1	scared	At this moment	1	3	12	226	RTPJ	390.262272834778	0	2862.91922137911	-1.26483079800834	0.000287480144725064	12.7558759997678	1489.97003745318	0.38739431206764	n/a	n/a	n/a	n/a	1342.34755332497	1	8	1	0	0	0	0
361.228604000092	6.00480898928646	panas_none	367.233412989378	69	5	12	10	n/a	n/a	n/a	n/a	n/a	n/a	n/a	n/a	2000	0	BLOCKED	n/a	n/a	+	0	proud	At this moment	5	3	12	226	NONE	n/a	0.534332084893883	n/a	n/a	n/a	n/a	999.844504021448	0	1548.88857734804	-0.821003587501878	0.00037605181652337	49.2787878572942	1176.10222905457	1	1	0	1	0	1	0
368.234262443542	6.00490454816816	panas_none	374.239166991711	70	5	12	10	n/a	n/a	n/a	n/a	n/a	n/a	n/a	n/a	2000	0	BLOCKED	n/a	n/a	+	0	irritable	At this moment	4	3	12	226	NONE	n/a	0	2619.10366596046	-1.10384980420387	0.000233764798377236	9.8033618543907	1344.38451935081	0	1247.99296327404	0.539665821455379	-0.000219923487857691	10.0721527063585	1516.90776325903	1	2	0	1	0	1	0
375.223202967167	6.00485588741299	panas_none	381.22805885458	71	5	12	10	n/a	n/a	n/a	n/a	n/a	n/a	n/a	n/a	2000	0	BLOCKED	n/a	n/a	+	0	interested	At this moment	4	3	12	226	NONE	n/a	0	247.802565675705	0.976450851155755	-0.000163877543201883	11.0848390731685	1571.52933832709	0.164488854727133	1593.71314781728	0.314129035890438	-0.000171707203757971	15.673207432275	1715.21803127875	1	3	0	1	0	1	0
382.212630102396	14.3112658627033	panas_none	396.523895965099	72	5	12	10	n/a	n/a	n/a	n/a	n/a	n/a	n/a	n/a	2000	0	BLOCKED	n/a	n/a	+	0	nervous	At this moment	1	3	12	226	NONE	n/a	0	-359.32336794118	2.24138309920828	-0.000533459483030192	12.5017543973466	1967.10486891386	0.230591852421214	1805.67620199883	-0.0532371163593137	0.000100207895727804	15.7935570906465	1825.75924075924	1	4	0	1	0	1	0
397.507994353771	2.51887999010086	punish_rtpj	400.026874343872	73	3	13	10	750	250	250	250	0	0	0	0	2000	0	BLOCKED	0.25	1	0	-1	distressed	At this moment	2	3	12	226	RTPJ	340.734761714935	0	3818.95216463944	-1.63357334184701	0.00035625095249359	23.1445007228586	1978.12109862672	0	1037.91670703566	1.07821328145374	-0.000281067663938104	11.3435642711341	1718.66410453497	0	1	0	0	1	0	0
401.010780203581	2.51866983032227	punish_rtpj	403.529450033903	74	3	13	10	750	250	250	250	0	0	0	0	2000	0	BLOCKED	0.25	-1	8	-1	determined	At this moment	5	3	12	226	RTPJ	306.348972797394	0	7351.1002981772	-4.94712126210576	0.0010967306706221	12.5134171750725	1846.33458177278	0	1328.27560798274	0.525531504437833	-6.205444173912e-05	18.8552620820924	1721.19139123751	0	2	0	0	1	0	0
404.530474738598	2.51861658501622	punish_rtpj	407.049091323614	75	3	13	10	750	250	250	250	0	0	0	0	2000	0	BLOCKED	0.25	-1	8	-1	hostile	At this moment	5	3	12	226	RTPJ	141.730481386185	0.589263420724095	n/a	n/a	n/a	n/a	1926.53191489362	0	1394.93048033172	0.419024885279905	-2.2639964926388e-05	13.5872936131426	1730.75172943889	1	3	0	0	1	0	0
408.049927731037	2.51877490997316	punish_rtpj	410.56870264101	76	3	13	10	750	250	250	250	0	0	0	0	2000	0	BLOCKED	0.25	1	3	-1	scared	At this moment	2	3	12	226	RTPJ	790.585763692856	0	4246.17434910954	-1.88253618918106	0.000365273831043077	25.7590096228893	1922.06242197253	0	1197.41556052694	0.415210177101963	8.34943381597519e-05	27.4291826657153	1622.93466564181	0	4	0	0	1	0	0
411.552675145626	2.51882251358035	punish_rtpj	414.071497659206	77	3	13	10	750	250	250	250	0	0	0	0	2000	0	BLOCKED	0.25	-1	10	-1	interested	At this moment	1	3	12	226	RTPJ	406.834208965302	0	5971.9029760966	-3.55969235786586	0.000755160204949889	30.25465983674	1867.36329588015	0	1398.20478704683	0.31318750434599	6.78389822781519e-05	11.3419583869558	1722.57647963105	0	5	0	0	1	0	0
415.055687727928	2.51866172027587	punish_rtpj	417.574349448204	78	3	13	10	750	250	250	250	0	0	0	0	2000	0	BLOCKED	0.25	-1	8	-1	proud	At this moment	5	3	12	226	RTPJ	691.311766624451	0	2886.51431578617	-0.742845905260785	0.000120944418731185	23.2538873126262	1866.78776529338	0	1289.23059459916	0.36958450429302	4.86535914693896e-05	19.0192057206002	1645.04458109147	0	6	0	0	1	0	0
418.57523381114	2.51863950538637	punish_rtpj	421.093873316526	79	3	13	10	750	250	250	250	0	0	0	0	2000	0	BLOCKED	0.25	-1	1	1	jittery	At this moment	3	3	12	226	RTPJ	723.372752666473	0	13280.1233933101	-10.0288341450189	0.00212329789340447	10.1319169393608	1662.13483146067	0	1328.95422271667	0.54630585713471	-5.40787050981355e-05	14.4980062502863	1745.73481936972	0	7	0	0	1	0	0
422.078070085049	2.51863915300368	punish_rtpj	424.596709238052	80	3	13	10	750	250	250	250	0	0	0	0	2000	0	BLOCKED	0.25	1	6	1	alert	At this moment	5	3	12	226	RTPJ	423.461858987808	0	9351.81088431079	-6.58212715214153	0.0013667443551111	10.9238121409968	1605.60923845193	0	1111.49368868114	0.377796135059085	8.46795296311936e-05	24.3021892958592	1505.45657186779	0	8	0	0	1	0	0
425.58080586338	6.00494122052191	panas_none	431.585747083902	81	5	14	10	n/a	n/a	n/a	n/a	n/a	n/a	n/a	n/a	2000	0	BLOCKED	n/a	n/a	+	0	active	At this moment	3	3	12	226	NONE	n/a	0	1499.52955313008	-0.469789398741375	0.00012761412991343	8.16231580723503	1082.74157303371	0	1584.69676593244	-0.621097056846037	0.000235531665045635	27.176025163016	1259.94696387394	2	1	0	1	0	0	0
432.586520725489	6.004877396822	panas_none	438.591398122311	82	5	14	10	n/a	n/a	n/a	n/a	n/a	n/a	n/a	n/a	2000	0	BLOCKED	n/a	n/a	+	0	enthusiastic	At this moment	3	3	12	226	NONE	n/a	0.225967540574282	2384.73132599543	-0.98511901931128	0.000238377002054664	6.27645325984584	1375.32580645161	0	1250.42713280388	0.103970209522019	6.28667589830137e-05	8.51858392411154	1389.55649500384	2	2	0	1	0	0	0
439.575527893782	6.0048915014267	panas_none	445.580419395208	83	5	14	10	n/a	n/a	n/a	n/a	n/a	n/a	n/a	n/a	2000	0	BLOCKED	n/a	n/a	+	0	guilty	At this moment	2	3	12	226	NONE	n/a	0.383270911360799	n/a	n/a	n/a	n/a	1061.45951417004	0	1128.6485440669	0.0942480089442802	-7.23217811589423e-05	7.99388165528977	1146.24212144504	1	3	0	1	0	0	0
446.564428219318	14.8454025280475	panas_none	461.409830747366	84	5	14	10	n/a	n/a	n/a	n/a	n/a	n/a	n/a	n/a	2000	0	BLOCKED	n/a	n/a	+	0	nervous	At this moment	3	3	12	226	NONE	n/a	0	2652.20808977714	-1.35843131037762	0.000319939249209659	8.33411251929428	1227.42946317104	0.550345887778632	n/a	n/a	n/a	n/a	948.333333333333	1	4	0	1	0	0	0
462.394215460777	2.51857956027987	reward_vlpfc	464.912795021057	85	2	15	10	0	0	0	0	250	250	250	750	2000	0	BLOCKED	0.75	1	3	-1	upset	At this moment	5	3	12	226	VLPFC	556.806405305862	0	2781.7767074631	-0.497881109984122	6.53222804804115e-05	23.4449157287859	2027.98751560549	0	901.299184221721	1.15556823528291	-0.000260483158779903	11.8552532825406	1668.95157571099	0	1	1	0	0	0	0
465.896888120413	2.51872307562826	reward_vlpfc	468.415611196041	86	2	15	10	0	0	0	0	250	250	250	750	2000	0	BLOCKED	0.75	-1	0	1	afraid	At this moment	1	3	12	226	VLPFC	273.172307252884	0	9109.66797670915	-6.464696951051	0.00138175209420315	8.87722896255627	1679.56803995006	0	1197.52055719465	0.866131746044784	-0.000269341193480075	19.78411244573	1701.53727901614	0	2	1	0	0	0	0
469.399713110685	2.51869627666474	reward_vlpfc	471.91840938735	87	2	15	10	0	0	0	0	250	250	250	750	2000	0	BLOCKED	0.75	1	7	1	distressed	At this moment	3	3	12	226	VLPFC	490.266539812088	0	9500.67814443241	-6.73844324787367	0.00142232496162597	12.7501658634018	1675.86766541823	0	1216.07435738484	0.601268710040009	-9.71227750365187e-05	17.7545674168069	1643.54496541122	0	3	1	0	0	0	0
472.91919678092	2.51886094880109	reward_vlpfc	475.438057729721	88	2	15	10	0	0	0	0	250	250	250	750	2000	0	BLOCKED	0.75	1	3	-1	scared	At this moment	4	3	12	226	VLPFC	490.615277528763	0	4671.88594198122	-2.46785467785957	0.000511088820832879	29.4491686010331	1770.48439450687	0	1188.08621041426	0.268711345682489	0.000137682500988894	29.3532643950728	1535.54880860876	0	4	1	0	0	0	0
476.422156118155	2.51869803977013	reward_vlpfc	478.940854157925	89	2	15	10	0	0	0	0	250	250	250	750	2000	0	BLOCKED	0.75	-1	1	1	interested	At this moment	2	3	12	226	VLPFC	306.542559623718	0	10719.0935996553	-8.04334062050051	0.00173639531041368	10.1197145906935	1550.23970037453	0	1192.31087643833	0.543629991749265	-8.73034235951971e-05	11.4830838603376	1579.17909300538	0	5	1	0	0	0	0
479.924869681358	2.5189029102325	reward_vlpfc	482.443772591591	90	2	15	10	0	0	0	0	250	250	250	750	2000	0	BLOCKED	0.75	1	7	1	inspired	At this moment	3	3	12	226	VLPFC	606.401618719101	0	5524.34710289909	-3.09126034172371	0.000598470199601654	40.1942053470979	1703.34706616729	0	1339.5768569731	0.0790856402504101	0.00021636861842203	27.0796815153247	1593.05841660261	0	6	1	0	0	0	0
483.427943971872	2.51869310283661	reward_vlpfc	485.946637074709	91	2	15	10	0	0	0	0	250	250	250	750	2000	0	BLOCKED	0.75	-1	1	1	afraid	At this moment	3	3	12	226	VLPFC	306.609556674957	0	10987.9119871927	-8.06216062522416	0.00169973891623553	10.1433996493544	1612.89138576779	0	1283.33771958714	0.320525218394717	4.13907862244835e-05	10.2860331487598	1592.06456571868	0	7	1	0	0	0	0
486.930646604061	2.51887011671067	reward_vlpfc	489.449516720772	92	2	15	10	0	0	0	0	250	250	250	750	2000	0	BLOCKED	0.75	-1	1	1	enthusiastic	At this moment	4	3	12	226	VLPFC	273.209684848785	0	9371.33875874119	-6.51127545846245	0.00134090519888352	10.8016736739243	1658.12609238452	0	1206.6600340514	0.439300133327265	-2.59030637015476e-05	11.6692842736752	1557.81398923905	0	8	1	0	0	0	0
490.450168356657	6.00514714884758	panas_none	496.455315505505	93	5	16	10	n/a	n/a	n/a	n/a	n/a	n/a	n/a	n/a	2000	0	BLOCKED	n/a	n/a	+	0	hostile	At this moment	1	3	12	226	NONE	n/a	0	1485.58236066579	-0.608669549484524	0.000196109675151272	7.76586453471556	1082.45692883895	0	1442.2463921262	-0.0871221231986352	-7.11378036126439e-05	49.0816147386759	1307.53651037663	1	1	0	1	0	1	1
497.458806765318	6.00204235720634	panas_none	503.460849122524	94	5	16	10	n/a	n/a	n/a	n/a	n/a	n/a	n/a	n/a	2000	0	BLOCKED	n/a	n/a	+	0	attentive	At this moment	5	3	12	226	NONE	n/a	0.304619225967541	n/a	n/a	n/a	n/a	1142.92818671454	0	1401.39737589562	-0.249901919616143	6.87966474354912e-05	7.99215179879728	1248.2759415834	1	2	0	1	0	1	1
504.444856888533	6.00496555113796	panas_none	510.449822439671	95	5	16	10	n/a	n/a	n/a	n/a	n/a	n/a	n/a	n/a	2000	0	BLOCKED	n/a	n/a	+	0	guilty	At this moment	2	3	12	226	NONE	n/a	0	1986.89342659927	-0.725984755749941	0.000134921068467983	6.40303809908142	1064.54057428215	0	1283.89065466031	-0.0263101090079274	-3.27917079546204e-05	7.02149404005541	1233.16295157571	2	3	0	1	0	1	1
511.433945511341	12.4600663132668	panas_none	523.894011824608	96	5	16	10	n/a	n/a	n/a	n/a	n/a	n/a	n/a	n/a	2000	0	BLOCKED	n/a	n/a	+	0	enthusiastic	At this moment	1	3	12	226	NONE	n/a	0.579275905118602	n/a	n/a	n/a	n/a	2239.72106824926	0	1818.32603324506	0.636429983209111	-0.000233007635741284	15.0278312550858	2160.2090699462	3	4	0	1	0	1	1
