onset	duration	trial_type	offset	trial	block	blockCntr	frequency	amplitude_1	amplitude_2	amplitude_3	amplitude_4	amplitude_5	amplitude_6	amplitude_7	amplitude_8	transition	sham	mode	rewardFraction	guess	outcome	correct	word	when	answer	runNr	scanNr	subjectNr	target	reactionTime	outcomeEyeClosed	outcomeParms_1	outcomeParms_2	outcomeParms_3	outcomeSigma	outcomePupilArea	guessEyeClosed	guessParms_1	guessParms_2	guessParms_3	guessSigma	guessPupilArea	nrBlinks	trialInBlock	isReward	isPanas	isPunish	beforePanasReward	beforePanasVLPFC
20.4888225812875	2.5502103181975	punish_rtpj	23.039032899485	1	3	1	10	750	250	250	250	0	0	0	0	2000	0	BLOCKED	0.25	1	7	1	nervous	At this moment	4	1	6	217	RTPJ	739.831329354085	1	n/a	n/a	n/a	n/a	n/a	1	n/a	n/a	n/a	n/a	n/a	0	1	0	0	1	0	0
24.0256729600504	2.51633796330728	punish_rtpj	26.5420109233577	2	3	1	10	750	250	250	250	0	0	0	0	2000	0	BLOCKED	0.25	1	4	-1	scared	At this moment	2	1	6	217	RTPJ	674.378627764992	0.374531835205993	n/a	n/a	n/a	n/a	1056.46506986028	0	771.699733581546	0.294042209410962	-4.91448444866853e-05	12.4366717124535	979.261337432744	1	2	0	0	1	0	0
27.5260737088677	2.51878547543846	punish_rtpj	30.0448591843061	3	3	1	10	750	250	250	250	0	0	0	0	2000	0	BLOCKED	0.25	1	0	-1	attentive	At this moment	1	1	6	217	RTPJ	990.843603586778	0	1792.03378144102	-0.759646560485405	0.000169180520397002	8.81922429473823	951.85393258427	0	815.81535757845	0.253113330425099	-0.000105746845141335	37.8105106875425	939.639508070715	0	3	0	0	1	0	0
31.0288186531374	2.51879146992229	punish_rtpj	33.5476101230597	4	3	1	10	750	250	250	250	0	0	0	0	2000	0	BLOCKED	0.25	1	10	1	active	At this moment	2	1	6	217	RTPJ	642.873388410546	0	2955.42254650379	-1.81650633327416	0.000398996430165818	13.3253346383915	921.359550561798	0	827.27391345289	0.0571198104844816	2.60013148159013e-05	19.9463870754765	898.336664104535	0	4	0	0	1	0	0
34.5318682581903	2.5186109301988	punish_rtpj	37.0504791883891	5	3	1	10	750	250	250	250	0	0	0	0	2000	0	BLOCKED	0.25	-1	8	-1	ashamed	At this moment	3	1	6	217	RTPJ	540.451299938373	0	730.964977752247	0.321338738072344	-8.28472413211948e-05	11.1959839622952	1035.96504369538	0	798.74766596329	0.146436701104073	-6.93081692082351e-07	9.39309843241755	922.700230591852	0	5	0	0	1	0	0
38.0346407065587	2.51881368476991	punish_rtpj	40.5534543913286	6	3	1	10	750	250	250	250	0	0	0	0	2000	0	BLOCKED	0.25	-1	6	-1	proud	At this moment	1	1	6	217	RTPJ	791.086274362169	0	1840.48106031125	-0.737434551782735	0.000146462058445049	8.19983435043527	945.637952559301	0	731.26357902982	0.293877453295605	-5.52905827463454e-05	15.1842036572421	933.677940046118	0	6	0	0	1	0	0
41.5400115869828	2.51617152825091	punish_rtpj	44.0561831152337	7	3	1	10	750	250	250	250	0	0	0	0	2000	0	BLOCKED	0.25	-1	7	-1	irritable	At this moment	2	1	6	217	RTPJ	622.908233986236	0.374531835205993	n/a	n/a	n/a	n/a	976.231536926148	0	734.474215357696	0.30723365766059	-0.000119954034826846	12.5159726204586	892.41045349731	1	7	0	0	1	0	0
45.0569024531897	2.51884788858332	punish_rtpj	47.575750341773	8	3	1	10	750	250	250	250	0	0	0	0	2000	0	BLOCKED	0.25	1	3	-1	strong	At this moment	4	1	6	217	RTPJ	557.356094501913	0.374531835205993	n/a	n/a	n/a	n/a	1004.35329341317	0	756.825008104009	0.198379657051909	-5.21907110729559e-05	13.0938979352608	880.511913912375	1	8	0	0	1	0	0
48.5728574748207	6.0085967937978	panas_none	54.5814542686185	9	5	2	10	n/a	n/a	n/a	n/a	n/a	n/a	n/a	n/a	2000	0	BLOCKED	n/a	n/a	+	0	inspired	At this moment	3	1	6	217	NONE	n/a	0.373283395755306	n/a	n/a	n/a	n/a	674.747011952191	0	692.424730028822	0.279796483871584	-0.000186823245353897	14.3715215983354	774.898539584935	13	1	0	1	0	0	0
55.5821037884774	6.02165030936803	panas_none	61.6037540978454	10	5	2	10	n/a	n/a	n/a	n/a	n/a	n/a	n/a	n/a	2000	0	BLOCKED	n/a	n/a	+	0	hostile	At this moment	1	1	6	217	NONE	n/a	0.830212234706617	n/a	n/a	n/a	n/a	785.720588235294	0.521137586471945	n/a	n/a	n/a	n/a	611.390048154093	30	2	0	1	0	0	0
62.6045806312608	6.02146589086298	panas_none	68.6260465221237	11	5	2	10	n/a	n/a	n/a	n/a	n/a	n/a	n/a	n/a	2000	0	BLOCKED	n/a	n/a	+	0	excited	At this moment	3	1	6	217	NONE	n/a	1	n/a	n/a	n/a	n/a	n/a	0.229823212913144	810.472057808939	-0.0471225997723391	-6.5148345823321e-05	42.1428246984829	694.885229540918	14	3	0	1	0	0	0
69.6273124158783	8.22304624814167	panas_none	77.85035866402	12	5	2	10	n/a	n/a	n/a	n/a	n/a	n/a	n/a	n/a	2000	0	BLOCKED	n/a	n/a	+	0	nervous	At this moment	1	1	6	217	NONE	n/a	0	-268.806630962635	1.04097981065626	-0.000201311831474411	13.4115838392855	1018.79775280899	0.230591852421214	795.29879009237	0.144700358041395	-5.39198042120567e-05	15.1994219333536	872.685314685315	3	4	0	1	0	0	0
78.8343163697692	2.5188087481372	reward_vlpfc	81.3531251179064	13	2	3	10	0	0	0	0	250	250	250	750	2000	0	BLOCKED	0.75	1	1	-1	distressed	At this moment	4	1	6	217	VLPFC	590.163194509223	0.374531835205993	n/a	n/a	n/a	n/a	870.550898203593	0	702.06624457121	0.15647187071039	-4.37083205334743e-05	14.3997206251552	797.489623366641	1	1	1	0	0	0	0
82.3539534144048	2.51870860501006	reward_vlpfc	84.8726620194148	14	2	3	10	0	0	0	0	250	250	250	750	2000	0	BLOCKED	0.75	1	9	1	ashamed	At this moment	3	1	6	217	VLPFC	640.07537533436	0.601747815230961	n/a	n/a	n/a	n/a	869.855799373041	0	700.24782856966	0.132273269504986	-2.57446848126627e-05	13.5219179721709	790.531129900077	2	2	1	0	0	0	0
85.8567678241543	2.51877771787159	reward_vlpfc	88.3755455420259	15	2	3	10	0	0	0	0	250	250	250	750	2000	0	BLOCKED	0.75	1	9	1	alert	At this moment	4	1	6	217	VLPFC	623.641676607542	0	6699.63457826437	-5.40457324129394	0.0012293935695919	21.6818919680578	828.338327091136	0	695.782341118857	0.0193259402824215	8.32001881955118e-05	10.8043421841829	783.95618754804	0	3	1	0	0	0	0
89.3762719323151	2.51875338732265	reward_vlpfc	91.8950253196377	16	2	3	10	0	0	0	0	250	250	250	750	2000	0	BLOCKED	0.75	1	7	1	jittery	At this moment	5	1	6	217	VLPFC	724.438554962166	0.374531835205993	n/a	n/a	n/a	n/a	838.137724550898	0	691.847382657188	0.174333252648752	-1.88526135553431e-05	12.1484862473143	823.470407378939	1	4	1	0	0	0	0
92.8791328874612	2.51879464347101	reward_vlpfc	95.3979275309322	17	2	3	10	0	0	0	0	250	250	250	750	2000	0	BLOCKED	0.75	-1	2	1	upset	At this moment	3	1	6	217	VLPFC	507.069082184695	0.374531835205993	n/a	n/a	n/a	n/a	886.554890219561	0	693.724992548725	0.214266381345584	-5.83465650644729e-05	18.3222304085002	825.85242121445	1	5	1	0	0	0	0
96.3986838936349	2.51872517799214	reward_vlpfc	98.9174090716271	18	2	3	10	0	0	0	0	250	250	250	750	2000	0	BLOCKED	0.75	1	10	1	nervous	At this moment	2	1	6	217	VLPFC	507.645257782191	0	4988.60193622556	-3.82436803356228	0.000866244972462305	20.48132921958	823.583021223471	0.230591852421214	763.70500540053	0.0187921830713169	6.77377279950408e-05	12.9134874766297	837.611388611389	1	6	1	0	0	0	0
99.9181139522996	2.51873081985862	reward_vlpfc	102.436844772158	19	2	3	10	0	0	0	0	250	250	250	750	2000	0	BLOCKED	0.75	1	1	-1	interested	At this moment	3	1	6	217	VLPFC	656.965007382445	0.374531835205993	n/a	n/a	n/a	n/a	883.431137724551	0	625.68174359556	0.3158778741408	-7.85537497848338e-05	15.6062071662807	827.223674096849	1	7	1	0	0	0	0
103.42122773358	2.51855627461988	reward_vlpfc	105.9397840082	20	2	3	10	0	0	0	0	250	250	250	750	2000	0	BLOCKED	0.75	1	6	1	determined	At this moment	1	1	6	217	VLPFC	840.174742704257	0	2204.33483856776	-1.24305541057784	0.000270445940665907	10.2393279335286	800.689138576779	0	727.898542690739	0.225634019240895	-9.31132932327628e-05	12.1733177359098	839.084550345888	0	8	1	0	0	0	0
106.923921901055	6.02155087147466	panas_none	112.945472772529	21	5	4	10	n/a	n/a	n/a	n/a	n/a	n/a	n/a	n/a	2000	0	BLOCKED	n/a	n/a	+	0	afraid	At this moment	1	1	6	217	NONE	n/a	1	n/a	n/a	n/a	n/a	n/a	0.0545734050730208	253.694488394726	1.27119272244312	-0.000661977819952191	16.2458445582553	770.171544715447	43	1	0	1	0	1	1
113.94641214327	6.02147223796324	panas_none	119.967884381234	22	5	4	10	n/a	n/a	n/a	n/a	n/a	n/a	n/a	n/a	2000	0	BLOCKED	n/a	n/a	+	0	upset	At this moment	1	1	6	217	NONE	n/a	0.670411985018727	n/a	n/a	n/a	n/a	668.55303030303	0	734.40313839562	-0.103098131685239	2.48280992644168e-05	14.4605193259527	667.954650269024	7	2	0	1	0	1	1
120.968620644787	6.02155298717413	panas_none	126.990173631961	23	5	4	10	n/a	n/a	n/a	n/a	n/a	n/a	n/a	n/a	2000	0	BLOCKED	n/a	n/a	+	0	scared	At this moment	1	1	6	217	NONE	n/a	1	n/a	n/a	n/a	n/a	n/a	0.0891621829362029	703.167589890738	-0.0636267182975691	1.62067591407597e-05	12.1401266578368	664.610970464135	9	3	0	1	0	1	1
127.99110595037	6.20503141638078	panas_none	134.196137366751	24	5	4	10	n/a	n/a	n/a	n/a	n/a	n/a	n/a	n/a	2000	0	BLOCKED	n/a	n/a	+	0	active	At this moment	3	1	6	217	NONE	n/a	0	939.859208132192	-0.279353083145383	0.000113064922927989	12.5794300367474	858.033707865169	0.405841660261337	n/a	n/a	n/a	n/a	763.266494178525	2	4	0	1	0	1	1
135.180064042235	2.51892722732947	punish_rtpj	137.698991269564	25	3	5	10	750	250	250	250	0	0	0	0	2000	0	BLOCKED	0.25	1	10	1	strong	At this moment	2	1	6	217	RTPJ	723.699117858894	0.374531835205993	n/a	n/a	n/a	n/a	812.131736526946	0.275172943889316	n/a	n/a	n/a	n/a	746.001060445387	3	1	0	0	1	0	0
138.699687687438	2.51875409255643	punish_rtpj	141.218441779994	26	3	5	10	750	250	250	250	0	0	0	0	2000	0	BLOCKED	0.25	1	3	-1	jittery	At this moment	3	1	6	217	RTPJ	940.324569516815	0.637952559300874	n/a	n/a	n/a	n/a	812.527586206897	0	698.056118900325	0.211757436773258	-8.64141807873378e-05	12.9233605571153	803.988470407379	2	2	0	0	1	0	0
142.219239398845	2.51872482537479	punish_rtpj	144.73796422422	27	3	5	10	750	250	250	250	0	0	0	0	2000	0	BLOCKED	0.25	-1	8	-1	afraid	At this moment	5	1	6	217	RTPJ	590.978796808049	0.374531835205993	n/a	n/a	n/a	n/a	789.119760479042	0	804.182679493685	-0.231705693081785	0.000125532067533846	24.2303076946774	715.687932359723	1	3	0	0	1	0	0
145.722050987662	2.51871142594331	punish_rtpj	148.240762413605	28	3	5	10	750	250	250	250	0	0	0	0	2000	0	BLOCKED	0.25	1	0	-1	active	At this moment	3	1	6	217	RTPJ	673.868391478434	0.374531835205993	n/a	n/a	n/a	n/a	801.712574850299	0.265949269792467	n/a	n/a	n/a	n/a	747.224083769633	3	4	0	0	1	0	0
149.241769134125	2.55189899930915	punish_rtpj	151.793668133434	29	3	5	10	750	250	250	250	0	0	0	0	2000	0	BLOCKED	0.25	1	1	-1	irritable	At this moment	2	1	6	217	RTPJ	589.716429220513	0.374531835205993	n/a	n/a	n/a	n/a	684.393213572854	0	675.796233942152	0.0800243086997982	-3.60004460027734e-05	17.3395878043192	707.196771714066	1	5	0	0	1	0	0
152.777843051037	2.5187332881745	punish_rtpj	155.296576339211	30	3	5	10	750	250	250	250	0	0	0	0	2000	0	BLOCKED	0.25	-1	6	-1	upset	At this moment	5	1	6	217	RTPJ	490.980595152825	0.645443196004994	n/a	n/a	n/a	n/a	829.531690140845	0	687.959833422996	0.0119610813387966	1.15595619745297e-05	11.6055527673153	707.716372021522	2	6	0	0	1	0	0
156.280607389222	2.51877666002326	punish_rtpj	158.799384049245	31	3	5	10	750	250	250	250	0	0	0	0	2000	0	BLOCKED	0.25	1	0	-1	interested	At this moment	2	1	6	217	RTPJ	557.012293274514	0.609238451935081	n/a	n/a	n/a	n/a	917.846645367412	0	696.757773804991	-0.0463034033645311	0.00010993903975049	11.5579900059195	751.951575710992	2	7	0	0	1	0	0
159.800086814218	2.51882179495229	punish_rtpj	162.31890860917	32	3	5	10	750	250	250	250	0	0	0	0	2000	0	BLOCKED	0.25	-1	2	1	active	At this moment	5	1	6	217	RTPJ	624.112419827841	0.607990012484395	n/a	n/a	n/a	n/a	899.65923566879	0.230591852421214	613.601978497882	0.701183903301623	-0.000340822561737038	17.1583566457238	909.847152847153	3	8	0	0	1	0	0
163.319694591671	6.02160623228829	panas_none	169.34130082396	33	5	6	10	n/a	n/a	n/a	n/a	n/a	n/a	n/a	n/a	2000	0	BLOCKED	n/a	n/a	+	0	proud	At this moment	3	1	6	217	NONE	n/a	0.367041198501873	n/a	n/a	n/a	n/a	257.072978303748	0.0153727901614143	591.551205933204	0.455392006763654	-0.00023466826328906	39.2265263488848	777.508196721311	19	1	0	1	0	0	0
170.329178568948	6.01780784578995	panas_none	176.346986414738	34	5	6	10	n/a	n/a	n/a	n/a	n/a	n/a	n/a	n/a	2000	0	BLOCKED	n/a	n/a	+	0	upset	At this moment	1	1	6	217	NONE	n/a	0.911360799001248	n/a	n/a	n/a	n/a	210.971830985915	1	n/a	n/a	n/a	n/a	n/a	41	2	0	1	0	0	0
177.347843978418	6.0213883152008	panas_none	183.369232293619	35	5	6	10	n/a	n/a	n/a	n/a	n/a	n/a	n/a	n/a	2000	0	BLOCKED	n/a	n/a	+	0	afraid	At this moment	1	1	6	217	NONE	n/a	0.932584269662921	n/a	n/a	n/a	n/a	222.518518518519	0	624.614572266255	-0.0404498686548231	5.46461218514664e-05	10.7347405610677	637.383551114527	14	3	0	1	0	0	0
184.370290848787	11.9262146144789	panas_none	196.296505463266	36	5	6	10	n/a	n/a	n/a	n/a	n/a	n/a	n/a	n/a	2000	0	BLOCKED	n/a	n/a	+	0	excited	At this moment	4	1	6	217	NONE	n/a	0.048689138576779	-1181.42364806163	1.80950009113482	-0.000392850103135503	18.3638709048273	842.409448818898	0.295926210607225	n/a	n/a	n/a	n/a	695.625545851528	9	4	0	1	0	0	0
197.297279809418	2.51873011462482	reward_vlpfc	199.816009924043	37	2	7	10	0	0	0	0	250	250	250	750	2000	0	BLOCKED	0.75	1	8	1	hostile	At this moment	4	1	6	217	VLPFC	573.354664289393	0.374531835205993	n/a	n/a	n/a	n/a	779.107784431138	0.687163720215219	n/a	n/a	n/a	n/a	773.297297297297	6	1	1	0	0	0	0
200.800171089596	2.51889020258187	reward_vlpfc	203.319061292178	38	2	7	10	0	0	0	0	250	250	250	750	2000	0	BLOCKED	0.75	1	3	-1	enthusiastic	At this moment	5	1	6	217	VLPFC	706.691711851396	0.374531835205993	n/a	n/a	n/a	n/a	890.90618762475	0.401229823212913	n/a	n/a	n/a	n/a	737.853658536585	6	2	1	0	0	0	0
204.319666734956	2.51879922748824	reward_vlpfc	206.838465962444	39	2	7	10	0	0	0	0	250	250	250	750	2000	0	BLOCKED	0.75	-1	0	1	afraid	At this moment	3	1	6	217	VLPFC	1240.97116265818	0.374531835205993	n/a	n/a	n/a	n/a	861.854291417166	0	813.801820831898	0.111770170679062	-2.52156855722305e-05	16.9825900599197	887.28285933897	1	3	1	0	0	0	0
207.82263735388	2.5187251779912	reward_vlpfc	210.341362531872	40	2	7	10	0	0	0	0	250	250	250	750	2000	0	BLOCKED	0.75	-1	0	1	upset	At this moment	5	1	6	217	VLPFC	624.327163364738	0.374531835205993	n/a	n/a	n/a	n/a	775.263473053892	0.372021521906226	n/a	n/a	n/a	n/a	762.604651162791	3	4	1	0	0	0	0
211.325391466184	2.51872270967533	reward_vlpfc	213.844114175859	41	2	7	10	0	0	0	0	250	250	250	750	2000	0	BLOCKED	0.75	-1	2	1	proud	At this moment	5	1	6	217	VLPFC	591.273231706582	0.631710362047441	n/a	n/a	n/a	n/a	859.149152542373	0	748.116943998856	-0.0673389031785922	9.59106943853866e-05	22.0534570117951	773.878554957725	2	5	1	0	0	0	0
214.844779210851	2.51873998789117	reward_vlpfc	217.363519198742	42	2	7	10	0	0	0	0	250	250	250	750	2000	0	BLOCKED	0.75	1	0	-1	guilty	At this moment	5	1	6	217	VLPFC	640.302813069895	0.6729088639201	n/a	n/a	n/a	n/a	889.778625954198	0.230591852421214	676.466514970671	0.0869708530357099	8.38510372445366e-05	20.1697109015813	806.962037962038	3	6	1	0	0	0	0
218.366309454251	2.51679848064575	reward_vlpfc	220.883107934897	43	2	7	10	0	0	0	0	250	250	250	750	2000	0	BLOCKED	0.75	1	8	1	determined	At this moment	5	1	6	217	VLPFC	571.486501306295	0.374531835205993	n/a	n/a	n/a	n/a	768.249500998004	0	706.913648702777	0.136653899618464	-3.83595830141183e-05	18.2864452094924	789.70099923136	1	7	1	0	0	0	0
221.883976077076	2.51872059397584	reward_vlpfc	224.402696671052	44	2	7	10	0	0	0	0	250	250	250	750	2000	0	BLOCKED	0.75	-1	4	1	distressed	At this moment	2	1	6	217	VLPFC	423.066982000135	0.374531835205993	n/a	n/a	n/a	n/a	887.345309381237	0	668.513694757128	0.171872138394895	-2.93002080987646e-05	13.3244596155013	789.185242121445	1	8	1	0	0	0	0
225.386687875383	6.02170390709864	panas_none	231.408391782481	45	5	8	10	n/a	n/a	n/a	n/a	n/a	n/a	n/a	n/a	2000	0	BLOCKED	n/a	n/a	+	0	attentive	At this moment	4	1	6	217	NONE	n/a	0.245942571785268	-609.654894743931	0.866548777284625	-0.000211295815622566	13.4132959107988	271.726821192053	0	474.40712873663	0.845653206881694	-0.000613092129132851	76.8006476019199	663.437355880092	13	1	0	1	0	1	1
232.409127693417	6.02159106977285	panas_none	238.43071876319	46	5	8	10	n/a	n/a	n/a	n/a	n/a	n/a	n/a	n/a	2000	0	BLOCKED	n/a	n/a	+	0	ashamed	At this moment	1	1	6	217	NONE	n/a	1	n/a	n/a	n/a	n/a	n/a	0	768.445835709065	-0.0600744568654834	1.0494270804025e-05	11.6182366371157	726.404304381245	17	2	0	1	0	1	1
239.431476183743	6.02162703666929	panas_none	245.453103220413	47	5	8	10	n/a	n/a	n/a	n/a	n/a	n/a	n/a	n/a	2000	0	BLOCKED	n/a	n/a	+	0	proud	At this moment	2	1	6	217	NONE	n/a	0.85518102372035	n/a	n/a	n/a	n/a	185.689655172414	0.229823212913144	655.493741400644	0.0118252583035393	1.15708664059163e-05	11.9750756852444	673.669660678643	6	3	0	1	0	1	1
246.453967836426	11.7428370336331	panas_none	258.196804870059	48	5	8	10	n/a	n/a	n/a	n/a	n/a	n/a	n/a	n/a	2000	0	BLOCKED	n/a	n/a	+	0	inspired	At this moment	4	1	6	217	NONE	n/a	0	672.093713237212	0.0184306003780862	4.07415485075318e-05	12.9005191978461	892.724094881398	0.383551114527287	n/a	n/a	n/a	n/a	780.5536159601	7	4	0	1	0	1	1
259.197535491747	2.51878759113794	punish_vlpfc	261.716323082885	49	4	9	10	0	0	0	0	250	250	250	750	2000	0	BLOCKED	0.25	-1	10	-1	active	At this moment	1	1	6	217	VLPFC	690.289748623036	0.374531835205993	n/a	n/a	n/a	n/a	914.173652694611	0.529592621060722	n/a	n/a	n/a	n/a	894.609477124183	5	1	0	0	1	0	0
262.717163368349	2.51865641774702	punish_vlpfc	265.235819786096	50	4	9	10	0	0	0	0	250	250	250	750	2000	0	BLOCKED	0.25	-1	9	-1	determined	At this moment	3	1	6	217	VLPFC	641.22737391293	0	1002.42672939771	-0.201134194616725	7.79807963559797e-05	13.0948645936885	928.222222222222	0	769.584187821914	-0.0368227829554745	4.88441532068984e-05	12.1376030860156	780.766333589547	0	2	0	0	1	0	0
266.236651961377	2.51867792736181	punish_vlpfc	268.755329888739	51	4	9	10	0	0	0	0	250	250	250	750	2000	0	BLOCKED	0.25	1	6	1	hostile	At this moment	1	1	6	217	VLPFC	557.94990093261	0.374531835205993	n/a	n/a	n/a	n/a	826.35129740519	0.237509607993851	907.357775807846	-0.492512483074185	0.000306607986958059	40.9405386945652	759.234879032258	2	3	0	0	1	0	0
269.739496696158	2.51869485296032	punish_vlpfc	272.258191549119	52	4	9	10	0	0	0	0	250	250	250	750	2000	0	BLOCKED	0.25	-1	10	-1	attentive	At this moment	2	1	6	217	VLPFC	491.146677592769	0.463171036204744	n/a	n/a	n/a	n/a	713.939534883721	0.230591852421214	547.899725789979	0.42834224586969	-0.000155531496388669	24.214757671837	767.596403596404	2	4	0	0	1	0	0
273.25891970249	2.51877419170648	punish_vlpfc	275.777693894196	53	4	9	10	0	0	0	0	250	250	250	750	2000	0	BLOCKED	0.25	1	9	1	guilty	At this moment	4	1	6	217	VLPFC	539.987609051168	0.65043695380774	n/a	n/a	n/a	n/a	819.928571428571	0.259800153727902	n/a	n/a	n/a	n/a	644.632398753894	4	5	0	0	1	0	0
276.761850475733	2.51869802650901	punish_vlpfc	279.280548502242	54	4	9	10	0	0	0	0	250	250	250	750	2000	0	BLOCKED	0.25	1	4	-1	upset	At this moment	4	1	6	217	VLPFC	606.528485606425	0.374531835205993	n/a	n/a	n/a	n/a	897.900199600798	0.461183704842429	n/a	n/a	n/a	n/a	650.970042796006	3	6	0	0	1	0	0
280.281382087991	2.51867616427876	punish_vlpfc	282.800058252269	55	4	9	10	0	0	0	0	250	250	250	750	2000	0	BLOCKED	0.25	-1	9	-1	excited	At this moment	3	1	6	217	VLPFC	506.931914310902	0.554307116104869	n/a	n/a	n/a	n/a	846.717086834734	0.532667179093005	n/a	n/a	n/a	n/a	660.907894736842	8	7	0	0	1	0	0
283.784141489545	2.51920332616197	punish_vlpfc	286.303344815707	56	4	9	10	0	0	0	0	250	250	250	750	2000	0	BLOCKED	0.25	-1	10	-1	nervous	At this moment	2	1	6	217	VLPFC	473.572969253175	0.739076154806492	n/a	n/a	n/a	n/a	868.263157894737	0.392006149116065	n/a	n/a	n/a	n/a	823.462705436157	4	8	0	0	1	0	0
287.303943911386	6.02135587447043	panas_none	293.325299785856	57	5	10	10	n/a	n/a	n/a	n/a	n/a	n/a	n/a	n/a	2000	0	BLOCKED	n/a	n/a	+	0	jittery	At this moment	2	1	6	217	NONE	n/a	0.769038701622971	n/a	n/a	n/a	n/a	266.016216216216	0	538.367813436071	0.82924564443148	-0.000594573957291744	95.9820979893326	729.76479631053	11	1	0	1	0	0	1
294.32603287586	6.02162139480373	panas_none	300.347654270664	58	5	10	10	n/a	n/a	n/a	n/a	n/a	n/a	n/a	n/a	2000	0	BLOCKED	n/a	n/a	+	0	attentive	At this moment	4	1	6	217	NONE	n/a	0.786516853932584	n/a	n/a	n/a	n/a	224.122807017544	0.03228285933897	754.937704832487	0.0361416314078833	-6.2540015537688e-05	14.0136918281091	732.476568705322	6	2	0	1	0	0	1
301.331768538202	6.02162315788775	panas_none	307.35339169609	59	5	10	10	n/a	n/a	n/a	n/a	n/a	n/a	n/a	n/a	2000	0	BLOCKED	n/a	n/a	+	0	active	At this moment	3	1	6	217	NONE	n/a	0.555555555555556	n/a	n/a	n/a	n/a	733.522471910112	0.0791698693312836	736.438041426713	-0.102940719190292	8.17170434853266e-05	9.58993068109517	716.221202003339	5	3	0	1	0	0	1
308.354055673231	13.3943036896754	panas_none	321.748359362907	60	5	10	10	n/a	n/a	n/a	n/a	n/a	n/a	n/a	n/a	2000	0	BLOCKED	n/a	n/a	+	0	irritable	At this moment	4	1	6	217	NONE	n/a	0	852.193390625629	-0.0178052958677535	1.681005646231e-05	10.5697444644227	889.510611735331	0.250576479631053	n/a	n/a	n/a	n/a	889.635897435897	3	4	0	1	0	0	1
322.752248371881	2.51565917626675	reward_rtpj	325.267907548147	61	1	11	10	750	250	250	250	0	0	0	0	2000	0	BLOCKED	0.75	1	4	-1	alert	At this moment	2	1	6	217	RTPJ	553.988605545834	0.428214731585518	n/a	n/a	n/a	n/a	817.039301310044	0.230591852421214	410.109616395991	0.647807893594183	-0.00022049364429993	19.2202918790513	800.991008991009	2	1	1	0	0	0	0
326.268698819897	2.51870684192704	reward_rtpj	328.787405661824	62	1	11	10	750	250	250	250	0	0	0	0	2000	0	BLOCKED	0.75	-1	4	1	interested	At this moment	2	1	6	217	RTPJ	589.82820869796	0	3154.77115323763	-2.02392423995973	0.000429367085323653	12.3622240139128	818.801498127341	0.245196003074558	616.616334146694	0.480726798134393	-0.000170489046182546	16.4608050692502	847.798370672098	1	2	1	0	0	0	0
329.788085859331	2.51913033451791	reward_rtpj	332.307216193849	63	1	11	10	750	250	250	250	0	0	0	0	2000	0	BLOCKED	0.75	1	7	1	determined	At this moment	1	1	6	217	RTPJ	708.205495107919	0.644194756554307	n/a	n/a	n/a	n/a	871.726315789474	0	738.549422411967	0.0240959826805817	4.0046263623567e-05	16.4272358601315	793.529592621061	3	3	1	0	0	0	0
333.291058593955	2.51874104574136	reward_rtpj	335.809799639696	64	1	11	10	750	250	250	250	0	0	0	0	2000	0	BLOCKED	0.75	-1	8	-1	distressed	At this moment	1	1	6	217	RTPJ	640.197733310051	0	1841.66333755137	-0.799120403278244	0.00016094592552781	15.7952706980979	881.931335830212	0.231360491929285	725.329084089173	0.258081592797464	-7.80199043068437e-05	17.7244401169862	852.785	1	4	1	0	0	0	0
336.810611715828	2.51873928265832	reward_rtpj	339.329350998486	65	1	11	10	750	250	250	250	0	0	0	0	2000	0	BLOCKED	0.75	1	7	1	alert	At this moment	2	1	6	217	RTPJ	590.211502990685	0	2935.32693634209	-1.97997595981775	0.000461919862125989	13.5482801982013	838.978776529338	0.241352805534204	740.393169503065	0.119771932548705	-9.67522733608532e-06	16.3118287481179	811.676798378926	1	5	1	0	0	0	0
340.313345728984	2.51872024135855	reward_rtpj	342.832065970343	66	1	11	10	750	250	250	250	0	0	0	0	2000	0	BLOCKED	0.75	1	10	1	attentive	At this moment	2	1	6	217	RTPJ	725.188923181966	0.379525593008739	n/a	n/a	n/a	n/a	705.780684104628	0	711.909803103813	0.179738521770094	-0.000117862373387934	16.9117144819776	762.706379707917	1	6	1	0	0	0	0
343.816281438858	2.51871812565997	reward_rtpj	346.334999564518	67	1	11	10	750	250	250	250	0	0	0	0	2000	0	BLOCKED	0.75	1	6	1	afraid	At this moment	1	1	6	217	RTPJ	506.640300345607	0.395755305867665	n/a	n/a	n/a	n/a	836.506198347107	0	713.61655746753	0.0728363119666405	1.71419877089425e-05	12.6731016673923	790.707148347425	1	7	1	0	0	0	0
347.319159672221	2.51866064914685	reward_rtpj	349.837820321368	68	1	11	10	750	250	250	250	0	0	0	0	2000	0	BLOCKED	0.75	-1	1	1	distressed	At this moment	3	1	6	217	RTPJ	373.388233394362	0.377028714107366	n/a	n/a	n/a	n/a	787.414829659319	0	709.205255441882	0.188415540885007	-7.09481221024379e-05	12.2350094232504	807.997694081476	1	8	1	0	0	0	0
350.821903558643	6.02163973086886	panas_none	356.843543289511	69	5	12	10	n/a	n/a	n/a	n/a	n/a	n/a	n/a	n/a	2000	0	BLOCKED	n/a	n/a	+	0	inspired	At this moment	3	1	6	217	NONE	n/a	0.764044943820225	n/a	n/a	n/a	n/a	235.910052910053	0.0307455803228286	605.823877308381	0.403155972435507	-0.000241333526802729	34.2821394089185	743.792228390167	11	1	0	1	0	1	0
357.844381459275	6.02157026539089	panas_none	363.865951724666	70	5	12	10	n/a	n/a	n/a	n/a	n/a	n/a	n/a	n/a	2000	0	BLOCKED	n/a	n/a	+	0	alert	At this moment	4	1	6	217	NONE	n/a	0.214731585518102	366.901033484851	0.329441931780145	-9.82573400515654e-05	9.95637200190618	628.368839427663	0	687.967039656555	-0.0779100175569739	4.38643468106678e-05	8.3944009300481	659.483474250576	8	2	0	1	0	1	0
364.86672889175	6.02152865662708	panas_none	370.888257548377	71	5	12	10	n/a	n/a	n/a	n/a	n/a	n/a	n/a	n/a	2000	0	BLOCKED	n/a	n/a	+	0	strong	At this moment	3	1	6	217	NONE	n/a	0.626716604244694	n/a	n/a	n/a	n/a	677.401337792642	0	686.442372810938	-0.11692979732204	6.15916801916974e-05	6.47971265349582	640.219830899308	17	3	0	1	0	1	0
371.889130274572	12.7603342241598	panas_none	384.649464498732	72	5	12	10	n/a	n/a	n/a	n/a	n/a	n/a	n/a	n/a	2000	0	BLOCKED	n/a	n/a	+	0	nervous	At this moment	1	1	6	217	NONE	n/a	0	1450.13567536502	-0.780952948420416	0.000224020566188965	10.4801146644679	810.177278401997	0.260568793235972	n/a	n/a	n/a	n/a	761.510395010395	11	4	0	1	0	1	0
385.650372133976	2.51855697985178	punish_vlpfc	388.168929113828	73	4	13	10	0	0	0	0	250	250	250	750	2000	0	BLOCKED	0.25	1	8	1	upset	At this moment	5	1	6	217	VLPFC	607.456572615542	0.390761548064919	n/a	n/a	n/a	n/a	908.438524590164	0.230591852421214	1606.64560427737	-2.80575705259822	0.00168013290868251	146.617740379876	712.327672327672	2	1	0	0	1	0	0
389.170165740402	2.5184191067442	punish_vlpfc	391.688584847146	74	4	13	10	0	0	0	0	250	250	250	750	2000	0	BLOCKED	0.25	-1	7	-1	irritable	At this moment	2	1	6	217	VLPFC	1480.30089483503	0.405742821473159	n/a	n/a	n/a	n/a	833.783613445378	0.302843966179862	n/a	n/a	n/a	n/a	801.557883131202	5	2	0	0	1	0	0
392.672660326854	2.51888350286521	punish_vlpfc	395.19154382972	75	4	13	10	0	0	0	0	250	250	250	750	2000	0	BLOCKED	0.25	-1	9	-1	alert	At this moment	4	1	6	217	VLPFC	992.012175147422	0	-1160.73908758648	2.00914407235693	-0.000451703023513934	21.4603403483409	1042.77403245943	0.328209069946195	n/a	n/a	n/a	n/a	1042.38329519451	2	3	0	0	1	0	0
396.192089327669	2.51879675917138	punish_vlpfc	398.71088608684	76	4	13	10	0	0	0	0	250	250	250	750	2000	0	BLOCKED	0.25	1	4	-1	hostile	At this moment	2	1	6	217	VLPFC	907.87784372177	0.384519350811486	n/a	n/a	n/a	n/a	1026.04462474645	0.611068408916218	n/a	n/a	n/a	n/a	898.869565217391	7	4	0	0	1	0	0
399.711735187721	2.51870754715986	punish_vlpfc	402.23044273488	77	4	13	10	0	0	0	0	250	250	250	750	2000	0	BLOCKED	0.25	1	1	-1	active	At this moment	3	1	6	217	VLPFC	641.152971800417	0.433208489388265	n/a	n/a	n/a	n/a	952.354625550661	0.232897770945427	860.708106833182	0.518545896597302	-0.000298470813659349	47.9385465344361	1039.52304609218	2	5	0	0	1	0	0
403.214533377104	2.51879605393856	punish_vlpfc	405.733329431043	78	4	13	10	0	0	0	0	250	250	250	750	2000	0	BLOCKED	0.25	-1	9	-1	scared	At this moment	2	1	6	217	VLPFC	691.23335076496	0.563046192259675	n/a	n/a	n/a	n/a	868.2	0.627978478093774	n/a	n/a	n/a	n/a	887.787190082645	8	6	0	0	1	0	0
406.73407380478	2.51871072070861	punish_vlpfc	409.252784525488	79	4	13	10	0	0	0	0	250	250	250	750	2000	0	BLOCKED	0.25	-1	0	1	enthusiastic	At this moment	2	1	6	217	VLPFC	957.837275175378	0.377028714107366	n/a	n/a	n/a	n/a	1008.59118236473	0	1015.72414347182	-0.327917549317724	0.000193868627970376	36.9765046626587	904.156802459646	1	7	0	0	1	0	0
410.236862120897	2.51873575649222	punish_vlpfc	412.755597877389	80	4	13	10	0	0	0	0	250	250	250	750	2000	0	BLOCKED	0.25	-1	10	-1	afraid	At this moment	3	1	6	217	VLPFC	840.426863606088	0.446941323345818	n/a	n/a	n/a	n/a	968.896162528217	0.227517294388932	1368.21894735371	-1.04247159292038	0.000477993014439668	55.7136373286328	822.24776119403	2	8	0	0	1	0	0
413.756516091132	6.02147153272944	panas_none	419.777987623861	81	5	14	10	n/a	n/a	n/a	n/a	n/a	n/a	n/a	n/a	2000	0	BLOCKED	n/a	n/a	+	0	distressed	At this moment	2	1	6	217	NONE	n/a	0.993757802746567	n/a	n/a	n/a	n/a	214	0.0499615680245965	647.509224906496	0.410200091101103	-0.000206437988252755	18.4055452019973	832.288025889968	10	1	0	1	0	0	1
420.778713308915	6.02164184656925	panas_none	426.800355155485	82	5	14	10	n/a	n/a	n/a	n/a	n/a	n/a	n/a	n/a	2000	0	BLOCKED	n/a	n/a	+	0	alert	At this moment	4	1	6	217	NONE	n/a	0.962546816479401	n/a	n/a	n/a	n/a	212.5	0.195234435049962	786.447026859595	-0.0728211250180273	2.02896540435406e-05	12.05742503435	722.931232091691	3	2	0	1	0	0	1
427.801147485086	6.02146201207955	panas_none	433.822609497165	83	5	14	10	n/a	n/a	n/a	n/a	n/a	n/a	n/a	n/a	2000	0	BLOCKED	n/a	n/a	+	0	attentive	At this moment	3	1	6	217	NONE	n/a	0.923845193508115	n/a	n/a	n/a	n/a	568.44262295082	0	747.422644256353	0.0311141970424101	-3.21067954034659e-05	12.5741511044944	745.176787086856	16	3	0	1	0	0	1
434.82349809111	14.3116753839375	panas_none	449.135173475048	84	5	14	10	n/a	n/a	n/a	n/a	n/a	n/a	n/a	n/a	2000	0	BLOCKED	n/a	n/a	+	0	determined	At this moment	3	1	6	217	NONE	n/a	0	-460.810638549663	0.838374220626421	-0.000164832805589157	9.53742583983219	564.137328339576	0.557263643351268	n/a	n/a	n/a	n/a	503.583333333333	4	4	0	1	0	0	1
450.135973562215	2.51870578407681	reward_rtpj	452.654679346291	85	1	15	10	750	250	250	250	0	0	0	0	2000	0	BLOCKED	0.75	-1	3	1	distressed	At this moment	2	1	6	217	RTPJ	707.659644541331	0.403245942571785	n/a	n/a	n/a	n/a	875.251046025105	0.231360491929285	458.270906312145	0.449446131296198	-5.73534908229238e-05	15.6264568966257	806.143	2	1	1	0	0	0	0
453.638892346491	2.51853335453666	reward_rtpj	456.157425701028	86	1	15	10	750	250	250	250	0	0	0	0	2000	0	BLOCKED	0.75	-1	4	1	inspired	At this moment	5	1	6	217	RTPJ	707.836658096872	0.397003745318352	n/a	n/a	n/a	n/a	778.763975155279	0.55956956187548	n/a	n/a	n/a	n/a	769.528795811518	8	2	1	0	0	0	0
457.141934546593	2.51840570731179	reward_rtpj	459.660340253904	87	1	15	10	750	250	250	250	0	0	0	0	2000	0	BLOCKED	0.75	-1	10	-1	active	At this moment	4	1	6	217	RTPJ	661.089916891418	0.425717852684145	n/a	n/a	n/a	n/a	831.897826086957	0	823.011067843679	0.0091031156840024	4.63409960345629e-06	15.0825369607655	834.851652574942	1	3	1	0	0	0	0
460.644463689477	2.51874845069091	reward_rtpj	463.163212140168	88	1	15	10	750	250	250	250	0	0	0	0	2000	0	BLOCKED	0.75	-1	9	-1	alert	At this moment	2	1	6	217	RTPJ	507.509147757664	0.410736579275905	n/a	n/a	n/a	n/a	901.235169491525	0	772.043142717934	0.0884901016774409	-1.72994027603989e-05	10.47144313926	832.32667179093	1	4	1	0	0	0	0
464.164055246565	2.51872694107612	reward_rtpj	466.682782187641	89	1	15	10	750	250	250	250	0	0	0	0	2000	0	BLOCKED	0.75	1	6	1	attentive	At this moment	4	1	6	217	RTPJ	1057.34322399553	0.0786516853932584	-808.836625917167	1.43220737498471	-0.000315546279423982	17.0272887672146	795.639566395664	0.0292083013066872	760.799045874972	0.348583066976557	-0.000198375863133545	15.9592139109205	887.270783847981	1	5	1	0	0	0	0
467.68354313436	2.53540394528676	reward_rtpj	470.218947079646	90	1	15	10	750	250	250	250	0	0	0	0	2000	0	BLOCKED	0.75	1	6	1	distressed	At this moment	4	1	6	217	RTPJ	750.452495309524	0.420724094881398	n/a	n/a	n/a	n/a	1003.13577586207	0	735.562632123599	0.164101087690786	7.4674907645607e-05	23.4942693609949	939.312836279785	2	6	1	0	0	0	0
471.219759508397	2.51874633498954	reward_rtpj	473.738505843386	91	1	15	10	750	250	250	250	0	0	0	0	2000	0	BLOCKED	0.75	1	8	1	inspired	At this moment	4	1	6	217	RTPJ	740.090149970725	0.416978776529338	n/a	n/a	n/a	n/a	805.633832976445	0	763.249814756155	0.162773591476614	-5.39183286729113e-05	13.0291898461707	854.76479631053	1	7	1	0	0	0	0
474.722604595794	2.51872270967442	reward_rtpj	477.241327305469	92	1	15	10	750	250	250	250	0	0	0	0	2000	0	BLOCKED	0.75	1	8	1	active	At this moment	2	1	6	217	RTPJ	807.379984279163	0.397003745318352	n/a	n/a	n/a	n/a	898.395445134576	0	736.949263998284	0.208674831583465	-2.52603505554313e-05	17.6598810422929	892.530361260569	1	8	1	0	0	0	0
478.242061453324	6.02158542790454	panas_none	484.263646881228	93	5	16	10	n/a	n/a	n/a	n/a	n/a	n/a	n/a	n/a	2000	0	BLOCKED	n/a	n/a	+	0	strong	At this moment	3	1	6	217	NONE	n/a	0.866416978776529	n/a	n/a	n/a	n/a	613.775700934579	0.0876249039200615	736.049073066673	0.155728126099382	-0.000126977186146199	45.3309648955823	765.580454928391	8	1	0	1	0	1	0
485.247801347066	6.02149445281083	panas_none	491.269295799877	94	5	16	10	n/a	n/a	n/a	n/a	n/a	n/a	n/a	n/a	2000	0	BLOCKED	n/a	n/a	+	0	nervous	At this moment	2	1	6	217	NONE	n/a	0.918851435705368	n/a	n/a	n/a	n/a	219.169230769231	0.133743274404304	707.705942322714	0.0361298859482641	-3.83063529550419e-05	9.40928214652465	693.18544809228	2	2	0	1	0	1	0
492.270417473424	6.02130791860634	panas_none	498.291725392031	95	5	16	10	n/a	n/a	n/a	n/a	n/a	n/a	n/a	n/a	2000	0	BLOCKED	n/a	n/a	+	0	alert	At this moment	3	1	6	217	NONE	n/a	0.433208489388265	n/a	n/a	n/a	n/a	539.903083700441	0.0691775557263643	550.697490767728	-0.0467967344128411	-1.44383610759122e-06	14.2753266877515	511.460776218002	2	3	0	1	0	1	0
499.275816034255	7.18925816862844	panas_none	506.465074202883	96	5	16	10	n/a	n/a	n/a	n/a	n/a	n/a	n/a	n/a	2000	0	BLOCKED	n/a	n/a	+	0	proud	At this moment	2	1	6	217	NONE	n/a	0	885.130361635211	-0.286729243156812	8.6529070743142e-05	6.39053512175298	669.102372034956	0.273635664873174	n/a	n/a	n/a	n/a	586.552380952381	2	4	0	1	0	1	0
