onset	duration	trial_type	offset	trial	block	blockCntr	frequency	amplitude_1	amplitude_2	amplitude_3	amplitude_4	amplitude_5	amplitude_6	amplitude_7	amplitude_8	transition	sham	mode	rewardFraction	guess	outcome	correct	word	when	answer	runNr	scanNr	subjectNr	target	reactionTime	outcomeEyeClosed	outcomeParms_1	outcomeParms_2	outcomeParms_3	outcomeSigma	outcomePupilArea	guessEyeClosed	guessParms_1	guessParms_2	guessParms_3	guessSigma	guessPupilArea	nrBlinks	trialInBlock	isReward	isPanas	isPunish	beforePanasReward	beforePanasVLPFC
20.3070864309231	2.50832404482365	reward_rtpj	22.8154104757467	1	1	1	10	750	250	250	250	0	0	0	0	2000	0	BLOCKED	0.75	1	7	1	attentive	At this moment	3	2	8	217	RTPJ	897.40125059057	0.443196004993758	n/a	n/a	n/a	n/a	1140.97533632287	0.230591852421214	920.572427281832	0.915098733345084	-0.000574189063222319	20.942945860327	1145.5984015984	2	1	1	0	0	0	0
23.816317758373	2.51872623584233	reward_rtpj	26.3350439942153	2	1	1	10	750	250	250	250	0	0	0	0	2000	0	BLOCKED	0.75	1	8	1	alert	At this moment	3	2	8	217	RTPJ	674.413536812179	0.393258426966292	n/a	n/a	n/a	n/a	1007.52674897119	0.230591852421214	1187.87320940935	-0.635553587677736	0.000334627970699528	33.2410704721067	934.577422577423	2	2	1	0	0	0	0
27.335828213633	2.51871495210938	reward_rtpj	29.8545431657424	3	1	1	10	750	250	250	250	0	0	0	0	2000	0	BLOCKED	0.75	1	0	-1	active	At this moment	2	2	8	217	RTPJ	807.214607073925	0.410736579275905	n/a	n/a	n/a	n/a	1047.92584745763	0	903.11798151356	0.0178435874585959	1.38057343428601e-05	14.6599488470212	930.092236740968	1	3	1	0	0	0	0
30.855242051932	2.51881791616976	reward_rtpj	33.3740599681018	4	1	1	10	750	250	250	250	0	0	0	0	2000	0	BLOCKED	0.75	1	6	1	irritable	At this moment	3	2	8	217	RTPJ	891.693797579035	0.374531835205993	n/a	n/a	n/a	n/a	892.36127744511	0	800.396135245032	0.212627620468935	-9.6401794974479e-05	14.6679053032207	897.579554189085	1	4	1	0	0	0	0
34.3748233831376	2.51876572890673	reward_rtpj	36.8935891120443	5	1	1	10	750	250	250	250	0	0	0	0	2000	0	BLOCKED	0.75	-1	0	1	jittery	At this moment	5	2	8	217	RTPJ	657.147662804462	0.374531835205993	n/a	n/a	n/a	n/a	851.59880239521	0	818.33715421825	-0.0480370422403317	7.18960285895936e-05	15.862315173393	839.734050730208	1	5	1	0	0	0	0
37.8777379360152	2.51873364078998	reward_rtpj	40.3964715768052	6	1	1	10	750	250	250	250	0	0	0	0	2000	0	BLOCKED	0.75	-1	3	1	attentive	At this moment	4	2	8	217	RTPJ	690.452657512389	0.631710362047441	n/a	n/a	n/a	n/a	970.925423728814	0	767.837913983852	0.0584440936881582	1.82636239497103e-05	12.6611682835828	832.823212913144	2	6	1	0	0	0	0
41.3806207533935	2.51863984476402	reward_rtpj	43.8992605981575	7	1	1	10	750	250	250	250	0	0	0	0	2000	0	BLOCKED	0.75	1	9	1	interested	At this moment	2	2	8	217	RTPJ	507.401247063652	0.374531835205993	n/a	n/a	n/a	n/a	915.992015968064	0	678.53418256077	0.164534591808475	-1.80216049866731e-05	12.1642289270662	802.936971560338	1	7	1	0	0	0	0
44.88332726245	2.51913174498267	reward_rtpj	47.4024590074327	8	1	1	10	750	250	250	250	0	0	0	0	2000	0	BLOCKED	0.75	1	4	-1	irritable	At this moment	1	2	8	217	RTPJ	623.759803183377	0.416978776529338	n/a	n/a	n/a	n/a	696.603854389722	0	717.64893443061	0.0109166427460026	-3.59318860197882e-06	7.87353615620884	723.710222905457	1	8	1	0	0	0	0
48.4028144450104	6.02167040851712	panas_none	54.4244848535275	9	5	2	10	n/a	n/a	n/a	n/a	n/a	n/a	n/a	n/a	2000	0	BLOCKED	n/a	n/a	+	0	alert	At this moment	3	2	8	217	NONE	n/a	0.993757802746567	n/a	n/a	n/a	n/a	717.4	0	525.46289118494	0.176496369037798	-4.84381160003721e-05	24.3696549200971	634.568793235972	17	1	0	1	0	1	0
55.4084802892581	6.02170355448219	panas_none	61.4301838437403	10	5	2	10	n/a	n/a	n/a	n/a	n/a	n/a	n/a	n/a	2000	0	BLOCKED	n/a	n/a	+	0	strong	At this moment	3	2	8	217	NONE	n/a	0	1081.18495870974	-0.31941689502947	7.28785569949258e-05	18.5973528148104	735.570536828964	0	694.218016664131	0.333753901596788	-0.000167317328710106	13.9422935863472	833.310530361261	1	2	0	1	0	1	0
62.4143464197591	6.02153429849167	panas_none	68.4358807182508	11	5	2	10	n/a	n/a	n/a	n/a	n/a	n/a	n/a	n/a	2000	0	BLOCKED	n/a	n/a	+	0	nervous	At this moment	2	2	8	217	NONE	n/a	0.531835205992509	n/a	n/a	n/a	n/a	545.405333333333	0	710.040587875744	-0.114700287326325	2.07068619366177e-05	7.42617699244478	630.520368946964	8	3	0	1	0	1	0
69.4243737792857	13.1229976223055	panas_none	82.5473714015912	12	5	2	10	n/a	n/a	n/a	n/a	n/a	n/a	n/a	n/a	2000	0	BLOCKED	n/a	n/a	+	0	inspired	At this moment	4	2	8	217	NONE	n/a	0	-192.476814360163	0.830497154817925	-0.000232990673239339	10.5845569029383	511.629213483146	0.510376633358955	n/a	n/a	n/a	n/a	623.98273155416	19	4	0	1	0	1	0
83.5314486443829	2.51875902919006	punish_rtpj	86.0502076735729	13	3	3	10	750	250	250	250	0	0	0	0	2000	0	BLOCKED	0.25	-1	10	-1	excited	At this moment	5	2	8	217	RTPJ	657.405425571837	0.363295880149813	n/a	n/a	n/a	n/a	711.182352941176	0	511.27277306255	0.0720262213851152	8.72102467020359e-08	7.79465483362768	572.367409684858	1	1	0	0	1	0	0
87.0342905582311	2.51873646172416	punish_rtpj	89.5530270199552	14	3	3	10	750	250	250	250	0	0	0	0	2000	0	BLOCKED	0.25	1	3	-1	distressed	At this moment	2	2	8	217	RTPJ	757.412795258686	0.374531835205993	n/a	n/a	n/a	n/a	1027.88822355289	0	801.143911185019	0.142728057128711	-8.27470337791479e-07	34.3279866736263	923.12759415834	1	2	0	0	1	0	0
90.5372195683895	2.51889831276517	punish_rtpj	93.0561178811546	15	3	3	10	750	250	250	250	0	0	0	0	2000	0	BLOCKED	0.25	-1	9	-1	hostile	At this moment	4	2	8	217	RTPJ	1490.49468941707	0	1551.48045236461	-0.414323304195171	0.000107277232676936	12.7631774664081	1160.265917603	0	799.215139414761	0.455994059800951	-0.000128837416932067	17.0219798993943	1075.66102997694	0	3	0	0	1	0	0
94.0399962481586	2.5187153047258	punish_rtpj	96.5587115528844	16	3	3	10	750	250	250	250	0	0	0	0	2000	0	BLOCKED	0.25	1	10	1	scared	At this moment	3	2	8	217	RTPJ	657.002032129094	0.374531835205993	n/a	n/a	n/a	n/a	1223.37325349301	0	1007.96020855214	0.393894006016872	-0.000125466015452172	14.4007856851151	1234.31283627978	1	4	0	0	1	0	0
97.5428631977877	2.51884859381802	punish_rtpj	100.061711791606	17	3	3	10	750	250	250	250	0	0	0	0	2000	0	BLOCKED	0.25	1	4	-1	interested	At this moment	1	2	8	217	RTPJ	906.722671593539	0	1107.11387904796	-0.0361699288490089	3.1997990931836e-05	13.3387624036174	1173.62047440699	0.249039200614912	937.824226290279	0.445302534734729	-0.000203082364128819	25.6213578508622	1131.19959058342	1	5	0	0	1	0	0
101.045549960312	2.51877912833915	punish_rtpj	103.564329088652	18	3	3	10	750	250	250	250	0	0	0	0	2000	0	BLOCKED	0.25	-1	6	-1	irritable	At this moment	1	2	8	217	RTPJ	507.128321781754	0.379525593008739	n/a	n/a	n/a	n/a	1108.34406438632	0	1015.99820170243	-0.168068865745847	0.000197852688442952	19.6543722512564	1043.39354342813	1	6	0	0	1	0	0
104.565558662891	2.51836163023114	punish_rtpj	107.083920293123	19	3	3	10	750	250	250	250	0	0	0	0	2000	0	BLOCKED	0.25	1	6	1	guilty	At this moment	5	2	8	217	RTPJ	639.642009478062	0.374531835205993	n/a	n/a	n/a	n/a	1000.64471057884	0	853.005223627022	0.105036247440029	3.69497819476344e-05	25.4264607299605	960.283627978478	1	7	0	0	1	0	0
108.06806523831	2.51870296314358	punish_rtpj	110.586768201454	20	3	3	10	750	250	250	250	0	0	0	0	2000	0	BLOCKED	0.25	1	1	-1	inspired	At this moment	1	2	8	217	RTPJ	673.158221557736	0.746566791510612	n/a	n/a	n/a	n/a	1070.63054187192	0	848.652571459025	0.018103749677636	5.65196008791223e-05	19.4119721664326	912.902382782475	2	8	0	0	1	0	0
111.587493886509	6.02168662888278	panas_none	117.609180515392	21	5	4	10	n/a	n/a	n/a	n/a	n/a	n/a	n/a	n/a	2000	0	BLOCKED	n/a	n/a	+	0	strong	At this moment	3	2	8	217	NONE	n/a	0.972534332084894	n/a	n/a	n/a	n/a	520.318181818182	0	864.639587974067	0.0187019699324079	-8.87922682014054e-05	34.4665730966423	806.049192928517	15	1	0	1	0	0	0
118.609928062678	6.02159917995426	panas_none	124.631527242633	22	5	4	10	n/a	n/a	n/a	n/a	n/a	n/a	n/a	n/a	2000	0	BLOCKED	n/a	n/a	+	0	nervous	At this moment	2	2	8	217	NONE	n/a	0.838951310861423	n/a	n/a	n/a	n/a	234.418604651163	0	764.673261554164	-0.0600984884952849	2.41393887464081e-06	8.05701445783871	715.365103766334	4	2	0	1	0	0	0
125.615567813293	6.02163303115312	panas_none	131.637200844446	23	5	4	10	n/a	n/a	n/a	n/a	n/a	n/a	n/a	n/a	2000	0	BLOCKED	n/a	n/a	+	0	active	At this moment	3	2	8	217	NONE	n/a	0	686.530049947395	0.0639507713218551	-3.63687702883084e-05	9.25422863795033	658.34581772784	0	684.427133944773	0.119931936308053	-4.87687892758363e-05	10.1244468265687	744.514988470407	2	3	0	1	0	0	0
132.637989647881	6.0387430486027	panas_none	138.676732696484	24	5	4	10	n/a	n/a	n/a	n/a	n/a	n/a	n/a	n/a	2000	0	BLOCKED	n/a	n/a	+	0	alert	At this moment	5	2	8	217	NONE	n/a	0	642.59616325108	-0.231898180654623	7.22869878701989e-05	9.25079649574398	478.134831460674	0.694081475787856	n/a	n/a	n/a	n/a	452.489949748744	5	4	0	1	0	0	0
139.677130448059	2.51878688590506	punish_vlpfc	142.195917333964	25	4	5	10	0	0	0	0	250	250	250	750	2000	0	BLOCKED	0.25	1	0	-1	enthusiastic	At this moment	1	2	8	217	VLPFC	623.643087074161	0.478152309612984	n/a	n/a	n/a	n/a	578.253588516746	0	640.379365563044	0.00684510270620227	5.8190170189606e-06	7.53028798491096	651.401229823213	1	1	0	0	1	0	0
143.179902543812	2.51871424687559	punish_vlpfc	145.698616790688	26	4	5	10	0	0	0	0	250	250	250	750	2000	0	BLOCKED	0.25	1	2	-1	excited	At this moment	1	2	8	217	VLPFC	806.812624098733	0	-1405.43804836031	1.69875338446914	-0.000376597940155091	14.362055221727	474.217228464419	0.180630284396618	467.392131458532	0.112655166627392	-0.000165642190285297	10.3971973702881	434.038461538462	3	2	0	0	1	0	0
146.682698617496	2.51868674277793	punish_vlpfc	149.201385360274	27	4	5	10	0	0	0	0	250	250	250	750	2000	0	BLOCKED	0.25	-1	1	1	determined	At this moment	3	2	8	217	VLPFC	542.182295047678	0.466916354556804	n/a	n/a	n/a	n/a	570.875878220141	0	396.877175611203	0.158966508211392	-3.40553364165301e-05	11.994787422277	500.843966179862	1	3	0	0	1	0	0
150.202602592931	2.51846212597565	punish_vlpfc	152.721064718907	28	4	5	10	0	0	0	0	250	250	250	750	2000	0	BLOCKED	0.25	-1	4	1	ashamed	At this moment	3	2	8	217	VLPFC	856.303075416014	0	1831.73200153112	-0.969080975491125	0.000214928905761351	8.25509797495832	755.913857677903	0.253651037663336	n/a	n/a	n/a	n/a	682.870236869207	1	4	0	0	1	0	0
153.705146193097	2.51871459949297	punish_vlpfc	156.22386079259	29	4	5	10	0	0	0	0	250	250	250	750	2000	0	BLOCKED	0.25	-1	6	-1	jittery	At this moment	2	2	8	217	VLPFC	1023.46064322256	0.393258426966292	n/a	n/a	n/a	n/a	932.390946502058	0	549.52071273028	0.231099223702819	1.3635049613068e-05	9.33335308075705	757.833973866257	1	5	0	0	1	0	0
157.224538169165	2.51885494091641	punish_vlpfc	159.743393110082	30	4	5	10	0	0	0	0	250	250	250	750	2000	0	BLOCKED	0.25	-1	8	-1	excited	At this moment	1	2	8	217	VLPFC	907.361965568736	0.440699126092385	n/a	n/a	n/a	n/a	853.511160714286	0	861.955773311094	0.177638896833979	-5.38569131795108e-05	15.7556026131416	966.368178324366	1	6	0	0	1	0	0
160.744088822721	2.51879217515514	punish_vlpfc	163.262880997877	31	4	5	10	0	0	0	0	250	250	250	750	2000	0	BLOCKED	0.25	1	1	-1	determined	At this moment	5	2	8	217	VLPFC	573.562708110549	0	663.384108855825	-0.295402510889317	9.9863476232348e-05	17.235125960785	488.504369538077	0	634.090535828046	-0.0141687933789886	-4.17275499047705e-05	6.93551293194279	586.033051498847	0	7	0	0	1	0	0
164.247032290164	2.51870402099286	punish_vlpfc	166.765736311157	32	4	5	10	0	0	0	0	250	250	250	750	2000	0	BLOCKED	0.25	-1	6	-1	scared	At this moment	3	2	8	217	VLPFC	690.761902309954	0.795255930087391	n/a	n/a	n/a	n/a	470.030487804878	0.279016141429669	n/a	n/a	n/a	n/a	453.751599147122	5	8	0	0	1	0	0
167.766524056742	6.02155933427346	panas_none	173.788083391015	33	5	6	10	n/a	n/a	n/a	n/a	n/a	n/a	n/a	n/a	2000	0	BLOCKED	n/a	n/a	+	0	proud	At this moment	2	2	8	217	NONE	n/a	0.558052434456929	n/a	n/a	n/a	n/a	483.78813559322	0.0845503458877786	587.72382134899	-0.267375427283063	0.000159653395853494	14.3743641673929	495.583543240974	9	1	0	1	0	0	1
174.772256545534	6.02153288802504	panas_none	180.793789433559	34	5	6	10	n/a	n/a	n/a	n/a	n/a	n/a	n/a	n/a	2000	0	BLOCKED	n/a	n/a	+	0	strong	At this moment	3	2	8	217	NONE	n/a	0.368289637952559	n/a	n/a	n/a	n/a	700.936758893281	0	954.31988540659	-0.192772352811217	5.30896722647658e-05	9.60831202296742	836.300538047656	8	2	0	1	0	0	1
181.794590578577	6.02158154912198	panas_none	187.816172127699	35	5	6	10	n/a	n/a	n/a	n/a	n/a	n/a	n/a	n/a	2000	0	BLOCKED	n/a	n/a	+	0	excited	At this moment	3	2	8	217	NONE	n/a	1	n/a	n/a	n/a	n/a	n/a	0.58032282859339	n/a	n/a	n/a	n/a	269.159340659341	8	3	0	1	0	0	1
188.80031777812	6.18824545362497	panas_none	194.988563231745	36	5	6	10	n/a	n/a	n/a	n/a	n/a	n/a	n/a	n/a	2000	0	BLOCKED	n/a	n/a	+	0	nervous	At this moment	5	2	8	217	NONE	n/a	0.0212234706616729	367.633737764552	0.736650930215254	-0.000127330881356721	11.7497337875095	1344.68239795918	0.252113758647194	n/a	n/a	n/a	n/a	1136.86742034943	3	4	0	1	0	0	1
195.97317398352	2.5184014759129	punish_rtpj	198.491575459433	37	3	7	10	750	250	250	250	0	0	0	0	2000	0	BLOCKED	0.25	1	8	1	attentive	At this moment	5	2	8	217	RTPJ	506.129006210715	0.397003745318352	n/a	n/a	n/a	n/a	1029.87784679089	0	907.377030774967	0.0416599946214331	0.000114646282561022	34.7277594373347	1041.523443505	1	1	0	0	1	0	0
199.492309254671	2.51873011462484	punish_rtpj	202.011039369295	38	3	7	10	750	250	250	250	0	0	0	0	2000	0	BLOCKED	0.25	1	1	-1	jittery	At this moment	4	2	8	217	RTPJ	1006.69936363213	0.399500624219725	n/a	n/a	n/a	n/a	938.284823284823	0	663.937104078634	0.620207284104538	-0.000238183698496641	14.1696675640226	986.727132974635	1	2	0	0	1	0	0
203.011729792686	2.51894873694425	punish_rtpj	205.53067852963	39	3	7	10	750	250	250	250	0	0	0	0	2000	0	BLOCKED	0.25	1	0	-1	guilty	At this moment	1	2	8	217	RTPJ	1488.43963961117	0.374531835205993	n/a	n/a	n/a	n/a	1181.61876247505	0	831.14838801192	0.492119100714067	-0.000206979419720851	25.8459925045292	1069.89469638739	1	3	0	0	1	0	0
206.531352380038	2.51867969044577	punish_rtpj	209.050032070484	40	3	7	10	750	250	250	250	0	0	0	0	2000	0	BLOCKED	0.25	1	0	-1	determined	At this moment	1	2	8	217	RTPJ	1488.70515994541	0	-1147.40724830362	2.27233909004419	-0.00051981225080124	19.6883235017491	1304.78152309613	0.230591852421214	993.009611783621	-0.00653049269453464	7.65048165590144e-05	19.0660998461786	1043.75624375624	1	4	0	0	1	0	0
210.050890692013	2.51870613669323	punish_rtpj	212.569596828707	41	3	7	10	750	250	250	250	0	0	0	0	2000	0	BLOCKED	0.25	-1	7	-1	strong	At this moment	2	2	8	217	RTPJ	656.531641525216	0.398252184769039	n/a	n/a	n/a	n/a	1176.63278008299	0.230591852421214	1007.01807110002	0.189897865313295	-3.15589743014431e-05	20.6422641807838	1144.53846153846	2	5	0	0	1	0	0
213.570424419972	2.51873293555715	punish_rtpj	216.089157355529	42	3	7	10	750	250	250	250	0	0	0	0	2000	0	BLOCKED	0.25	1	3	-1	active	At this moment	1	2	8	217	RTPJ	506.443187640049	0.383270911360799	n/a	n/a	n/a	n/a	1091.03846153846	0	920.708867416061	0.171047246443854	1.89670135758795e-05	17.9810527326044	1080.65641813989	1	6	0	0	1	0	0
217.089845310604	2.51877666002233	punish_rtpj	219.608621970627	43	3	7	10	750	250	250	250	0	0	0	0	2000	0	BLOCKED	0.25	-1	8	-1	alert	At this moment	1	2	8	217	RTPJ	656.884963403456	0.382022471910112	n/a	n/a	n/a	n/a	952.559595959596	0	833.834938177248	0.48519971469202	-0.000218676346018982	12.34646448287	1057.34973097617	1	7	0	0	1	0	0
220.592784194029	2.51871142594331	punish_rtpj	223.111495619972	44	3	7	10	750	250	250	250	0	0	0	0	2000	0	BLOCKED	0.25	1	7	1	proud	At this moment	4	2	8	217	RTPJ	723.950180909596	0.387016229712859	n/a	n/a	n/a	n/a	897.030549898167	0	771.247281118829	0.257473001653946	-7.58348206663584e-05	15.2674616804595	924.573405073021	1	8	0	0	1	0	0
224.112311222271	6.0215466400748	panas_none	230.133857862346	45	5	8	10	n/a	n/a	n/a	n/a	n/a	n/a	n/a	n/a	2000	0	BLOCKED	n/a	n/a	+	0	determined	At this moment	3	2	8	217	NONE	n/a	0.500624219725343	n/a	n/a	n/a	n/a	312.5025	0.153727901614143	688.381185022234	0.367335549704798	-0.000227603119330554	17.8485042613481	814.825613079019	8	1	0	1	0	0	0
231.118080383196	6.02147435366268	panas_none	237.139554736858	46	5	8	10	n/a	n/a	n/a	n/a	n/a	n/a	n/a	n/a	2000	0	BLOCKED	n/a	n/a	+	0	ashamed	At this moment	1	2	8	217	NONE	n/a	0.831460674157303	n/a	n/a	n/a	n/a	222.925925925926	0.229823212913144	685.739502687951	0.165688405440783	-6.31459792258754e-05	11.3555849607616	754.017964071856	5	2	0	1	0	0	0
238.140258207064	6.02168310271574	panas_none	244.16194130978	47	5	8	10	n/a	n/a	n/a	n/a	n/a	n/a	n/a	n/a	2000	0	BLOCKED	n/a	n/a	+	0	afraid	At this moment	1	2	8	217	NONE	n/a	0.411985018726592	n/a	n/a	n/a	n/a	608.004246284501	0.0207532667179093	793.886359670159	-0.0787996842461686	2.23354855275987e-06	9.2272972101392	729.371271585557	39	3	0	1	0	0	0
245.162773485062	6.53849991942758	panas_none	251.701273404489	48	5	8	10	n/a	n/a	n/a	n/a	n/a	n/a	n/a	n/a	2000	0	BLOCKED	n/a	n/a	+	0	irritable	At this moment	1	2	8	217	NONE	n/a	0.388264669163546	n/a	n/a	n/a	n/a	778.912244897959	0.256725595695619	n/a	n/a	n/a	n/a	817.720785935884	2	4	0	1	0	0	0
252.705189917562	2.51575332491007	reward_vlpfc	255.220943242472	49	2	9	10	0	0	0	0	250	250	250	750	2000	0	BLOCKED	0.75	-1	2	1	upset	At this moment	2	2	8	217	VLPFC	470.807396909222	0.374531835205993	n/a	n/a	n/a	n/a	865.291417165669	0	651.313576349194	0.100714239755033	8.19765340157966e-05	18.977921862961	805.919292851653	2	1	1	0	0	0	0
256.205051162912	2.51870613669325	reward_vlpfc	258.723757299605	50	2	9	10	0	0	0	0	250	250	250	750	2000	0	BLOCKED	0.75	1	3	-1	strong	At this moment	3	2	8	217	VLPFC	807.28125161957	0.378277153558052	n/a	n/a	n/a	n/a	1031.77911646586	0	809.177594986621	0.165630528111063	-3.57866881223621e-05	47.13850492477	917.490392006149	1	2	1	0	0	0	0
259.724452307012	2.5188150952356	reward_vlpfc	262.243267402248	51	2	9	10	0	0	0	0	250	250	250	750	2000	0	BLOCKED	0.75	1	7	1	determined	At this moment	1	2	8	217	VLPFC	990.640496399254	0	3573.70571878778	-2.21663094669963	0.000479469335014121	17.432764822702	1059.04369538077	0.242121445042275	924.13492900545	0.301074795168735	-7.91018344158526e-05	20.4833612116272	1104.19168356998	1	3	1	0	0	0	0
263.244120029295	2.51876008704022	reward_vlpfc	265.762880116335	52	2	9	10	0	0	0	0	250	250	250	750	2000	0	BLOCKED	0.75	-1	3	1	inspired	At this moment	2	2	8	217	VLPFC	1241.03569150437	0	2684.15620793077	-1.25899464260629	0.000243595631000608	19.7383586494021	1128.04119850187	0	884.196439956391	0.32788119949639	-0.000116832882402706	15.2782845974273	1062.11683320523	0	4	1	0	0	0	0
266.746895298596	2.5187558556413	reward_vlpfc	269.265651154238	53	2	9	10	0	0	0	0	250	250	250	750	2000	0	BLOCKED	0.75	-1	7	-1	afraid	At this moment	3	2	8	217	VLPFC	1173.75396737922	0	2029.70804503759	-0.872079297090654	0.000189825835687792	11.9657542867193	1045.96629213483	0	1015.94750338409	-0.418965602585268	0.000326407812623639	29.0143499310915	941.977709454266	0	5	1	0	0	0	0
270.266459351587	2.5187431614408	reward_vlpfc	272.785202513028	54	2	9	10	0	0	0	0	250	250	250	750	2000	0	BLOCKED	0.75	1	6	1	ashamed	At this moment	2	2	8	217	VLPFC	623.100410058163	0.374531835205993	n/a	n/a	n/a	n/a	863.688622754491	0	927.355935157671	-0.382020049894438	0.000240229122820185	21.3669189737694	810.223674096849	1	6	1	0	0	0	0
273.785936660882	2.51872905677556	reward_vlpfc	276.304665717658	55	2	9	10	0	0	0	0	250	250	250	750	2000	0	BLOCKED	0.75	1	8	1	distressed	At this moment	1	2	8	217	VLPFC	823.717771279626	0.387016229712859	n/a	n/a	n/a	n/a	792.360488798371	0	688.776506698012	0.138934078035949	-4.04252069432296e-05	15.7890218316332	770.67717140661	1	7	1	0	0	0	0
277.305522223488	2.51869908436015	reward_vlpfc	279.824221307848	56	2	9	10	0	0	0	0	250	250	250	750	2000	0	BLOCKED	0.75	1	9	1	strong	At this moment	1	2	8	217	VLPFC	692.328578063287	0.403245942571785	n/a	n/a	n/a	n/a	707.887029288703	0.31129900076864	n/a	n/a	n/a	n/a	681.639508928571	4	8	1	0	0	0	0
280.82504396248	6.02157590725642	panas_none	286.846619869736	57	5	10	10	n/a	n/a	n/a	n/a	n/a	n/a	n/a	n/a	2000	0	BLOCKED	n/a	n/a	+	0	scared	At this moment	2	2	8	217	NONE	n/a	0.514357053682896	n/a	n/a	n/a	n/a	585.899742930591	0	625.119916457354	0.140881527789033	-0.000110952818243959	15.6188453850637	652.756341275942	4	1	0	1	0	1	1
287.830698875611	6.02164043610264	panas_none	293.852339311713	58	5	10	10	n/a	n/a	n/a	n/a	n/a	n/a	n/a	n/a	2000	0	BLOCKED	n/a	n/a	+	0	jittery	At this moment	2	2	8	217	NONE	n/a	0.588014981273408	n/a	n/a	n/a	n/a	559.209090909091	0	640.887466775731	-0.0178255788555889	-1.54512730922041e-05	9.88576549774332	612.119139123751	2	2	0	1	0	1	1
294.853133757014	6.02152301475962	panas_none	300.874656771773	59	5	10	10	n/a	n/a	n/a	n/a	n/a	n/a	n/a	n/a	2000	0	BLOCKED	n/a	n/a	+	0	excited	At this moment	3	2	8	217	NONE	n/a	0.655430711610487	n/a	n/a	n/a	n/a	502.554347826087	0	522.696998170805	-0.0669841213374851	4.00504531733415e-05	6.65437345811012	500.174481168332	3	3	0	1	0	1	1
301.858849672824	6.45517378535027	panas_none	308.314023458174	60	5	10	10	n/a	n/a	n/a	n/a	n/a	n/a	n/a	n/a	2000	0	BLOCKED	n/a	n/a	+	0	distressed	At this moment	5	2	8	217	NONE	n/a	0	275.660647667563	0.448426189904059	-0.000154351320784824	8.37067770095026	528.222222222222	0.458877786318217	n/a	n/a	n/a	n/a	696.038352272727	10	4	0	1	0	1	1
309.29824104239	2.51862080346604	reward_vlpfc	311.816861845857	61	2	11	10	0	0	0	0	250	250	250	750	2000	0	BLOCKED	0.75	1	9	1	interested	At this moment	1	2	8	217	VLPFC	506.492906587198	0.444444444444444	n/a	n/a	n/a	n/a	702.94606741573	0.249807840122982	585.78737896011	0.218892678698863	-4.2495858495004e-05	14.3417967680609	684.668032786885	2	1	1	0	0	0	0
312.800998328244	2.5187135416428	reward_vlpfc	315.319711869887	62	2	11	10	0	0	0	0	250	250	250	750	2000	0	BLOCKED	0.75	-1	4	1	attentive	At this moment	2	2	8	217	VLPFC	690.92340073362	0.598002496878901	n/a	n/a	n/a	n/a	448.229813664596	0.24750192159877	452.688681115514	0.242995171633745	-0.000126106306348143	8.71683437217604	559.031664964249	11	2	1	0	0	0	0
316.320492210522	2.51878688590415	reward_vlpfc	318.839279096426	63	2	11	10	0	0	0	0	250	250	250	750	2000	0	BLOCKED	0.75	1	7	1	enthusiastic	At this moment	1	2	8	217	VLPFC	591.606807052158	0.521847690387016	n/a	n/a	n/a	n/a	556.1227154047	0	578.045000190076	-0.242980446287335	0.000147787850482358	6.05728229939642	498.842428900846	1	3	1	0	0	0	0
319.839958941318	2.51877348647173	reward_vlpfc	322.35873242779	64	2	11	10	0	0	0	0	250	250	250	750	2000	0	BLOCKED	0.75	-1	9	-1	alert	At this moment	1	2	8	217	VLPFC	757.685720541514	0.454431960049938	n/a	n/a	n/a	n/a	803.508009153318	0.261337432744043	n/a	n/a	n/a	n/a	725.691987513007	2	4	1	0	0	0	0
323.342878783444	2.51872447275838	reward_vlpfc	325.861603256202	65	2	11	10	0	0	0	0	250	250	250	750	2000	0	BLOCKED	0.75	-1	1	1	inspired	At this moment	3	2	8	217	VLPFC	1190.48280623648	0	2457.16389907643	-1.36097533503326	0.000304753919104116	13.5447353149194	959.420724094881	0	821.199993296245	0.314333653692997	-0.000146800979930796	14.7857858011543	961.537279016141	0	5	1	0	0	0	0
326.845754195874	2.51870049482676	reward_vlpfc	329.3644546907	66	2	11	10	0	0	0	0	250	250	250	750	2000	0	BLOCKED	0.75	1	4	-1	proud	At this moment	4	2	8	217	VLPFC	689.898696763441	0.428214731585518	n/a	n/a	n/a	n/a	796.989082969432	0	964.899230281484	-0.555393001133447	0.000315551297488265	45.1401815308102	765.126056879324	1	6	1	0	0	0	0
330.34851324481	2.51866347008013	reward_vlpfc	332.86717671489	67	2	11	10	0	0	0	0	250	250	250	750	2000	0	BLOCKED	0.75	1	10	1	guilty	At this moment	1	2	8	217	VLPFC	607.162842950784	0.524344569288389	n/a	n/a	n/a	n/a	566.031496062992	0	697.804601722741	0.1306342051315	-7.54807521207701e-05	10.8020130482835	743.688700999231	1	7	1	0	0	0	0
333.851391478172	2.5187237675255	reward_vlpfc	336.370115245697	68	2	11	10	0	0	0	0	250	250	250	750	2000	0	BLOCKED	0.75	-1	2	1	afraid	At this moment	1	2	8	217	VLPFC	723.61484248098	0	-552.204863191846	1.08231667529034	-0.000273078733532096	9.01653816134119	501.428214731586	0.230591852421214	356.816366566962	-0.0958624389558453	0.000172130106439753	91.9129323911549	429.283716283716	2	8	1	0	0	0	0
337.370932258463	6.02147012226283	panas_none	343.392402380726	69	5	12	10	n/a	n/a	n/a	n/a	n/a	n/a	n/a	n/a	2000	0	BLOCKED	n/a	n/a	+	0	strong	At this moment	3	2	8	217	NONE	n/a	1	n/a	n/a	n/a	n/a	n/a	1	n/a	n/a	n/a	n/a	n/a	10	1	0	1	0	1	1
344.393214456859	6.02168451318335	panas_none	350.414898970042	70	5	12	10	n/a	n/a	n/a	n/a	n/a	n/a	n/a	n/a	2000	0	BLOCKED	n/a	n/a	+	0	enthusiastic	At this moment	3	2	8	217	NONE	n/a	0.400749063670412	n/a	n/a	n/a	n/a	405.85	0.904688700999231	n/a	n/a	n/a	n/a	337.741935483871	9	2	0	1	0	1	1
351.41561689753	6.02166511926799	panas_none	357.437282016798	71	5	12	10	n/a	n/a	n/a	n/a	n/a	n/a	n/a	n/a	2000	0	BLOCKED	n/a	n/a	+	0	jittery	At this moment	2	2	8	217	NONE	n/a	0.0861423220973783	852.927611573613	-0.406855332557813	0.000110466559066283	7.54381957851534	488.543715846995	0.229823212913144	631.725003349018	-0.47903729950571	0.000250657663862211	13.9892530704839	436.957085828343	4	3	0	1	0	1	1
358.42142026227	11.4259397498034	panas_none	369.847360012073	72	5	12	10	n/a	n/a	n/a	n/a	n/a	n/a	n/a	n/a	2000	0	BLOCKED	n/a	n/a	+	0	guilty	At this moment	4	2	8	217	NONE	n/a	0	427.404011353112	0.360551945660636	-4.70220818357644e-05	9.10007470167159	974.513108614232	0.231360491929285	575.9888645749	0.345424855240142	-6.72179409504113e-05	14.9095712073645	811.401	4	4	0	1	0	1	1
370.848138942242	2.51880522197018	reward_rtpj	373.366944164212	73	1	13	10	750	250	250	250	0	0	0	0	2000	0	BLOCKED	0.75	1	8	1	proud	At this moment	4	2	8	217	RTPJ	674.493228173815	0.377028714107366	n/a	n/a	n/a	n/a	693.831663326653	0.240584166026134	295.419924402277	0.280610591988789	-0.00010616987929048	14.1305047802679	461.42004048583	3	1	1	0	0	0	0
374.367590157905	2.51885564615111	reward_rtpj	376.886445804056	74	1	13	10	750	250	250	250	0	0	0	0	2000	0	BLOCKED	0.75	-1	0	1	upset	At this moment	5	2	8	217	RTPJ	657.042230428196	0.389513108614232	n/a	n/a	n/a	n/a	707.226993865031	0	652.373113424181	0.205780727547514	-5.54270696807083e-05	10.4319007279708	779.369715603382	1	2	1	0	0	0	0
377.870458518001	2.51876749198976	reward_rtpj	380.389226009991	75	1	13	10	750	250	250	250	0	0	0	0	2000	0	BLOCKED	0.75	-1	3	1	alert	At this moment	3	2	8	217	RTPJ	1124.62106933817	1	n/a	n/a	n/a	n/a	n/a	0	545.574816778516	0.0647411758593364	-0.000113055943753627	9.78887355266774	502.528055342045	1	3	1	0	0	0	0
381.373394580494	2.51868286399446	reward_rtpj	383.892077444488	76	1	13	10	750	250	250	250	0	0	0	0	2000	0	BLOCKED	0.75	1	6	1	jittery	At this moment	4	2	8	217	RTPJ	656.46147081349	1	n/a	n/a	n/a	n/a	n/a	1	n/a	n/a	n/a	n/a	n/a	1	4	1	0	0	0	0
384.892894457254	2.51867792736181	reward_rtpj	387.411572384615	77	1	13	10	750	250	250	250	0	0	0	0	2000	0	BLOCKED	0.75	-1	7	-1	nervous	At this moment	4	2	8	217	RTPJ	806.556624415331	1	n/a	n/a	n/a	n/a	n/a	1	n/a	n/a	n/a	n/a	n/a	1	5	1	0	0	0	0
388.39587001281	2.51858977320046	reward_rtpj	390.914459786011	78	1	13	10	750	250	250	250	0	0	0	0	2000	0	BLOCKED	0.75	-1	6	-1	irritable	At this moment	2	2	8	217	RTPJ	1240.49654065445	0.414481897627965	n/a	n/a	n/a	n/a	807.149253731343	0	370.310810246856	0.410203855319933	-0.000103932532910213	8.81995250576095	629.170637970792	1	6	1	0	0	0	0
391.915212622547	2.51881580047029	reward_rtpj	394.434028423017	79	1	13	10	750	250	250	250	0	0	0	0	2000	0	BLOCKED	0.75	-1	2	1	interested	At this moment	5	2	8	217	RTPJ	1340.41187739931	0.660424469413233	n/a	n/a	n/a	n/a	857.113970588235	0	798.153124925612	0.229766215562407	-0.000116622655041721	12.0030409173535	892.706379707917	2	7	1	0	0	0	0
395.418060883494	2.51873963527567	reward_rtpj	397.93680051877	80	1	13	10	750	250	250	250	0	0	0	0	2000	0	BLOCKED	0.75	-1	2	1	alert	At this moment	4	2	8	217	RTPJ	856.776992187835	0.410736579275905	n/a	n/a	n/a	n/a	708.245762711864	0	780.587168651361	0.177103150276514	-0.000112753274675352	11.5357769091657	833.612605687932	1	8	1	0	0	0	0
398.937563228572	6.0216171634039	panas_none	404.959180391976	81	5	14	10	n/a	n/a	n/a	n/a	n/a	n/a	n/a	n/a	2000	0	BLOCKED	n/a	n/a	+	0	nervous	At this moment	2	2	8	217	NONE	n/a	0.627965043695381	n/a	n/a	n/a	n/a	696.614093959732	0	552.383474505773	0.196065811138446	-5.77786638649934e-05	20.6742217294648	670.552651806303	13	1	0	1	0	1	0
405.959999873058	6.02143450798093	panas_none	411.981434381039	82	5	14	10	n/a	n/a	n/a	n/a	n/a	n/a	n/a	n/a	2000	0	BLOCKED	n/a	n/a	+	0	active	At this moment	3	2	8	217	NONE	n/a	0.162297128589263	1294.97671832674	-0.827687109430897	0.000204587800831425	6.93837741216478	465.461997019374	0.229823212913144	764.369281152818	-0.884558077486746	0.000413681627383104	58.6630833434435	386.185628742515	3	2	0	1	0	1	0
412.982785960639	6.02112314748388	panas_none	419.003909108123	83	5	14	10	n/a	n/a	n/a	n/a	n/a	n/a	n/a	n/a	2000	0	BLOCKED	n/a	n/a	+	0	excited	At this moment	3	2	8	217	NONE	n/a	0.421972534332085	n/a	n/a	n/a	n/a	557.032397408207	0	452.076189843433	0.0714976706256326	-3.56612310034207e-06	15.565463854482	509.388931591084	7	3	0	1	0	1	0
419.9879648413	10.00824558762	panas_none	429.99621042892	84	5	14	10	n/a	n/a	n/a	n/a	n/a	n/a	n/a	n/a	2000	0	BLOCKED	n/a	n/a	+	0	interested	At this moment	5	2	8	217	NONE	n/a	1	n/a	n/a	n/a	n/a	n/a	1	n/a	n/a	n/a	n/a	n/a	7	4	0	1	0	1	0
430.996864532795	2.51885458830094	punish_vlpfc	433.515719121096	85	4	15	10	0	0	0	0	250	250	250	750	2000	0	BLOCKED	0.25	1	8	1	alert	At this moment	3	2	8	217	VLPFC	523.663926717825	0.453183520599251	n/a	n/a	n/a	n/a	937.614155251142	0.230591852421214	516.687477867315	0.334359154814059	1.44260738648903e-05	14.7053441983827	797.376623376623	2	1	0	0	1	0	0
434.499716672526	2.51883625223491	punish_vlpfc	437.018552924761	86	4	15	10	0	0	0	0	250	250	250	750	2000	0	BLOCKED	0.25	1	9	1	determined	At this moment	1	2	8	217	VLPFC	707.408581489697	0.466916354556804	n/a	n/a	n/a	n/a	879.126463700234	0	1002.92555505108	-0.288571903543947	0.000164283493702802	33.1519114284008	900.814757878555	1	2	0	0	1	0	0
438.01936746921	2.51870966286026	punish_vlpfc	440.53807713207	87	4	15	10	0	0	0	0	250	250	250	750	2000	0	BLOCKED	0.25	1	2	-1	excited	At this moment	5	2	8	217	VLPFC	956.841838387772	0.953807740324594	n/a	n/a	n/a	n/a	444.702702702703	0	700.68193299553	-0.243816508139779	6.56777815450417e-05	12.3358654797878	549.851652574942	3	3	0	0	1	0	0
441.538857825321	2.51874316144085	punish_vlpfc	444.057600986762	88	4	15	10	0	0	0	0	250	250	250	750	2000	0	BLOCKED	0.25	1	3	-1	strong	At this moment	1	2	8	217	VLPFC	724.124726149254	0.413233458177278	n/a	n/a	n/a	n/a	896.102127659574	0.253651037663336	n/a	n/a	n/a	n/a	784.150360453141	2	4	0	0	1	0	0
445.041623221357	2.51878935422098	punish_vlpfc	447.560412575578	89	4	15	10	0	0	0	0	250	250	250	750	2000	0	BLOCKED	0.25	-1	10	-1	active	At this moment	5	2	8	217	VLPFC	740.869080139324	0.419475655430712	n/a	n/a	n/a	n/a	1152.01290322581	0	762.158795002837	0.459329953652948	-0.000111427250468607	17.9448916108876	1057.18370484243	1	5	0	0	1	0	0
448.544548000117	2.51884577288479	punish_vlpfc	451.063393773002	90	4	15	10	0	0	0	0	250	250	250	750	2000	0	BLOCKED	0.25	-1	8	-1	irritable	At this moment	1	2	8	217	VLPFC	506.825071466155	0.411985018726592	n/a	n/a	n/a	n/a	876.768577494692	0	820.705229685362	0.306329767443571	-0.000138867070972178	11.4225260484198	961.08378170638	1	6	0	0	1	0	0
452.064099358907	2.51870261052716	punish_vlpfc	454.582801969434	91	4	15	10	0	0	0	0	250	250	250	750	2000	0	BLOCKED	0.25	1	2	-1	alert	At this moment	1	2	8	217	VLPFC	624.298601416871	0.790262172284644	n/a	n/a	n/a	n/a	424.345238095238	0	590.490715374079	0.12790616968636	-1.64958195752678e-05	8.031273528122	685.13528055342	1	7	0	0	1	0	0
455.566852765977	2.51882955251915	punish_vlpfc	458.085682318497	92	4	15	10	0	0	0	0	250	250	250	750	2000	0	BLOCKED	0.25	1	0	-1	scared	At this moment	4	2	8	217	VLPFC	723.604616598226	0	-455.588705210024	1.07160292607499	-0.000296312898278432	7.23623008518288	471.3645443196	0	905.225663634796	-1.50844468930345	0.000826893531152023	72.2283882503004	339.85242121445	0	8	0	0	1	0	0
459.086568444124	6.02149127926214	panas_none	465.108059723387	93	5	16	10	n/a	n/a	n/a	n/a	n/a	n/a	n/a	n/a	2000	0	BLOCKED	n/a	n/a	+	0	proud	At this moment	2	2	8	217	NONE	n/a	0.632958801498127	n/a	n/a	n/a	n/a	408.792517006803	0.0707148347425058	292.594948589539	0.530299872151469	-0.000229858554992179	13.5349300573377	554.846980976013	10	1	0	1	0	0	1
466.108743447061	6.0216714663664	panas_none	472.130414913427	94	5	16	10	n/a	n/a	n/a	n/a	n/a	n/a	n/a	n/a	2000	0	BLOCKED	n/a	n/a	+	0	excited	At this moment	3	2	8	217	NONE	n/a	0.916354556803995	n/a	n/a	n/a	n/a	630.253731343284	0	1079.60235169382	-0.0748882931690805	5.03778699586907e-06	9.1891377678624	1020.13681783244	4	2	0	1	0	0	1
473.114479109403	6.02153465110905	panas_none	479.136013760512	95	5	16	10	n/a	n/a	n/a	n/a	n/a	n/a	n/a	n/a	2000	0	BLOCKED	n/a	n/a	+	0	afraid	At this moment	2	2	8	217	NONE	n/a	0.574282147315855	n/a	n/a	n/a	n/a	757.724340175953	0.245196003074558	780.093693110267	0.254515174704138	-0.000188641870849996	9.23942210698544	850.836048879837	13	3	0	1	0	0	1
480.136775059848	10.4418868375607	panas_none	490.578661897409	96	5	16	10	n/a	n/a	n/a	n/a	n/a	n/a	n/a	n/a	2000	0	BLOCKED	n/a	n/a	+	0	scared	At this moment	2	2	8	217	NONE	n/a	0	7195.09680170942	-5.89848070414648	0.00146167500763879	54.9456159626462	1330.17353308365	0.230591852421214	1346.83419210445	-0.067530373822886	0.000160530919067131	29.3335012310989	1415.06793206793	4	4	0	1	0	0	1
