onset	duration	trial_type	offset	trial	block	blockCntr	frequency	amplitude_1	amplitude_2	amplitude_3	amplitude_4	amplitude_5	amplitude_6	amplitude_7	amplitude_8	transition	sham	mode	rewardFraction	guess	outcome	correct	word	when	answer	runNr	scanNr	subjectNr	target	reactionTime	outcomeEyeClosed	outcomeParms_1	outcomeParms_2	outcomeParms_3	outcomeSigma	outcomePupilArea	guessEyeClosed	guessParms_1	guessParms_2	guessParms_3	guessSigma	guessPupilArea	nrBlinks	trialInBlock	isReward	isPanas	isPunish	beforePanasReward	beforePanasVLPFC
20.3554160682466	2.50578132619895	reward_vlpfc	22.8611973944455	1	2	1	10	0	0	0	0	250	250	250	750	2000	0	BLOCKED	0.75	1	6	1	enthusiastic	At this moment	2	3	12	217	VLPFC	845.168499628082	0.367041198501873	n/a	n/a	n/a	n/a	1214.89546351085	0	1193.12109746308	-0.401944571676996	0.000214431393544354	40.3577660723575	1037.03382013836	1	1	1	0	0	0	0
23.8453017887175	2.51891841191426	reward_vlpfc	26.3642202006318	2	2	1	10	0	0	0	0	250	250	250	750	2000	0	BLOCKED	0.75	1	7	1	active	At this moment	1	3	12	217	VLPFC	724.125784000382	0.374531835205993	n/a	n/a	n/a	n/a	1145.4750499002	0	925.889528368627	0.283084132738145	-8.84693761859727e-05	12.4593371874914	1090.52190622598	1	2	1	0	0	0	0
27.3648104808964	2.5187636132054	reward_vlpfc	29.8835740941018	3	2	1	10	0	0	0	0	250	250	250	750	2000	0	BLOCKED	0.75	1	9	1	alert	At this moment	1	3	12	217	VLPFC	857.503382474184	0	3563.32751444119	-2.3794253422837	0.000584584276029565	16.3865675521909	1176.27715355805	0	940.057357469138	0.209526561558112	-4.56117812289674e-05	15.5998722053611	1078.93082244427	0	3	1	0	0	0	0
30.8843435036186	2.51872764630988	reward_vlpfc	33.4030711499285	4	2	1	10	0	0	0	0	250	250	250	750	2000	0	BLOCKED	0.75	-1	7	-1	upset	At this moment	5	3	12	217	VLPFC	690.309847773984	0.383270911360799	n/a	n/a	n/a	n/a	1342.05060728745	0	986.050338375979	0.147702565488764	4.67332646992405e-05	15.3396162952503	1152.06533435819	1	4	1	0	0	0	0
34.4038165815156	2.51869485296123	reward_vlpfc	36.9225114344768	5	2	1	10	0	0	0	0	250	250	250	750	2000	0	BLOCKED	0.75	1	10	1	guilty	At this moment	2	3	12	217	VLPFC	776.011912800372	0.374531835205993	n/a	n/a	n/a	n/a	1155.9880239521	0	1029.16340053155	0.179172687518864	-6.21873113914239e-05	15.691758493183	1127.95618754804	1	5	1	0	0	0	0
37.923543896012	2.51860458310135	reward_vlpfc	40.4421484791134	6	2	1	10	0	0	0	0	250	250	250	750	2000	0	BLOCKED	0.75	1	9	1	excited	At this moment	1	3	12	217	VLPFC	923.797074763104	0.374531835205993	n/a	n/a	n/a	n/a	1209.52694610778	0	945.074511675908	0.32920690887551	-9.59531290529149e-05	19.3638183669313	1142.48193697156	1	6	1	0	0	0	0
41.4428907371499	2.5187399878893	reward_vlpfc	43.9616307250392	7	2	1	10	0	0	0	0	250	250	250	750	2000	0	BLOCKED	0.75	1	9	1	jittery	At this moment	3	3	12	217	VLPFC	773.815816337243	0	3897.37856955348	-2.53928222143598	0.000588822681344455	17.4150726751244	1192.70037453184	0	1011.3341322384	0.247103900651191	-6.97662533430276e-05	19.4106011179388	1160.86471944658	0	7	1	0	0	0	0
44.9457023259662	2.51869167940878	reward_vlpfc	47.464394005375	8	2	1	10	0	0	0	0	250	250	250	750	2000	0	BLOCKED	0.75	1	1	-1	irritable	At this moment	3	3	12	217	VLPFC	740.27703679353	0.383270911360799	n/a	n/a	n/a	n/a	1194.16599190283	0	961.983762921221	0.0763638426087863	9.61736302560181e-05	12.8368324365846	1109.93850883935	1	8	1	0	0	0	0
48.4668471593745	6.01996092302166	panas_none	54.4868080823962	9	5	2	10	n/a	n/a	n/a	n/a	n/a	n/a	n/a	n/a	2000	0	BLOCKED	n/a	n/a	+	0	afraid	At this moment	1	3	12	217	NONE	n/a	0.589263420724095	n/a	n/a	n/a	n/a	819.455927051672	0	916.876973991268	0.563655502990114	-0.000451325943442947	53.4709692733998	1007.8954650269	11	1	0	1	0	1	1
55.4876949132569	6.02153429849259	panas_none	61.5092292117495	10	5	2	10	n/a	n/a	n/a	n/a	n/a	n/a	n/a	n/a	2000	0	BLOCKED	n/a	n/a	+	0	attentive	At this moment	4	3	12	217	NONE	n/a	0.0449438202247191	11444.2342782013	-9.90908731509594	0.00221578243218351	79.1225898484394	510.81568627451	0.229823212913144	937.092826453673	-0.0677343032569888	8.40038725483825e-05	12.6250507378609	950.715568862275	5	2	0	1	0	1	1
62.4935240190122	6.0213876099661	panas_none	68.5149116289783	11	5	2	10	n/a	n/a	n/a	n/a	n/a	n/a	n/a	n/a	2000	0	BLOCKED	n/a	n/a	+	0	upset	At this moment	1	3	12	217	NONE	n/a	0.716604244694132	n/a	n/a	n/a	n/a	950.299559471366	0.059185242121445	988.594137790651	-0.0308522391288817	1.77337862179341e-05	12.7879667428886	977.453431372549	2	3	0	1	0	1	1
69.4989701830894	6.221846293699	panas_none	75.7208164767884	12	5	2	10	n/a	n/a	n/a	n/a	n/a	n/a	n/a	n/a	2000	0	BLOCKED	n/a	n/a	+	0	active	At this moment	4	3	12	217	NONE	n/a	0	3263.10460931449	-1.91797181820458	0.000450970324075078	16.3376699795093	1248.31335830212	0.465026902382782	n/a	n/a	n/a	n/a	1189.28879310345	3	4	0	1	0	1	1
76.7215255888626	2.51876749198883	punish_rtpj	79.2402930808514	13	3	3	10	750	250	250	250	0	0	0	0	2000	0	BLOCKED	0.25	1	4	-1	interested	At this moment	5	3	12	217	RTPJ	606.696683745831	0.385767790262172	n/a	n/a	n/a	n/a	1270.33536585366	0.230591852421214	1034.29738633512	0.261106809776062	-8.08755033318902e-05	16.8674724248205	1198.83516483516	2	1	0	0	1	0	0
80.2411033939011	2.5186719328761	punish_rtpj	82.7597753267772	14	3	3	10	750	250	250	250	0	0	0	0	2000	0	BLOCKED	0.25	-1	9	-1	inspired	At this moment	1	3	12	217	RTPJ	974.539667785168	0.374531835205993	n/a	n/a	n/a	n/a	1236.02195608782	0.230591852421214	1013.24281870986	0.370433336986584	-0.000246405327048434	16.4635344690269	1111.97802197802	2	2	0	0	1	0	0
83.7439202719666	2.51887010343373	punish_rtpj	86.2627903754003	15	3	3	10	750	250	250	250	0	0	0	0	2000	0	BLOCKED	0.25	1	1	-1	scared	At this moment	2	3	12	217	RTPJ	890.126416591927	0.380774032459426	n/a	n/a	n/a	n/a	1250.96975806452	0	1113.14453401206	-0.0693419372217932	4.17028238245132e-05	60.0943660017473	1085.77401998463	1	3	0	0	1	0	0
87.2467600701153	2.51872376752459	punish_rtpj	89.7654838376399	16	3	3	10	750	250	250	250	0	0	0	0	2000	0	BLOCKED	0.25	-1	4	1	active	At this moment	3	3	12	217	RTPJ	739.945929761976	0.393258426966292	n/a	n/a	n/a	n/a	1257.32716049383	0.230591852421214	1089.31746993639	0.0431417537305592	1.64786037705796e-06	36.1542281260071	1108.61438561439	2	4	0	0	1	0	0
90.7495734220128	2.51869238464535	punish_rtpj	93.2682658066582	17	3	3	10	750	250	250	250	0	0	0	0	2000	0	BLOCKED	0.25	-1	0	1	enthusiastic	At this moment	5	3	12	217	RTPJ	708.370167082176	0	7035.07754628378	-5.28214759332734	0.00113714046465739	85.4027624833019	1005.60424469413	0	1316.14290798368	-0.757942745881582	0.000427383908088078	87.2760765847566	1040.15680245965	0	5	0	0	1	0	0
94.2525736607369	2.51871142594145	punish_rtpj	96.7712850866783	18	3	3	10	750	250	250	250	0	0	0	0	2000	0	BLOCKED	0.25	1	3	-1	interested	At this moment	2	3	12	217	RTPJ	556.766519472003	0.692883895131086	n/a	n/a	n/a	n/a	1223.30081300813	0.395849346656418	n/a	n/a	n/a	n/a	1039.80788804071	5	6	0	0	1	0	0
97.7720192345325	2.51864478139765	punish_rtpj	100.29066401593	19	3	3	10	750	250	250	250	0	0	0	0	2000	0	BLOCKED	0.25	1	1	-1	nervous	At this moment	2	3	12	217	RTPJ	940.202564157546	0	-2424.66062829216	3.38777641826008	-0.000768369019086584	25.3183452666138	1260.21348314607	0.471176018447348	n/a	n/a	n/a	n/a	1036.24563953488	2	7	0	0	1	0	0
101.291432367599	2.51881474262105	punish_rtpj	103.81024711022	20	3	3	10	750	250	250	250	0	0	0	0	2000	0	BLOCKED	0.25	-1	6	-1	afraid	At this moment	4	3	12	217	RTPJ	757.411384791136	0.525593008739076	n/a	n/a	n/a	n/a	1296.9	0.454265949269792	n/a	n/a	n/a	n/a	1149.17042253521	2	8	0	0	1	0	0
104.810996067971	6.02161504770629	panas_none	110.832611115677	21	5	4	10	n/a	n/a	n/a	n/a	n/a	n/a	n/a	n/a	2000	0	BLOCKED	n/a	n/a	+	0	active	At this moment	3	3	12	217	NONE	n/a	0.857677902621723	n/a	n/a	n/a	n/a	294.219298245614	0.05380476556495	750.984258460266	1.12938002700354	-0.000742734614892627	48.8261763767095	1053.20633631194	7	1	0	1	0	0	0
111.816767697213	6.02158930668793	panas_none	117.838357003901	22	5	4	10	n/a	n/a	n/a	n/a	n/a	n/a	n/a	n/a	2000	0	BLOCKED	n/a	n/a	+	0	distressed	At this moment	2	3	12	217	NONE	n/a	0.960049937578027	n/a	n/a	n/a	n/a	258.75	0	914.739795451703	0.163206889559673	-0.000107126387726994	10.6670126669767	960.946963873943	4	2	0	1	0	0	0
118.822453287993	6.02152795139141	panas_none	124.843981239384	23	5	4	10	n/a	n/a	n/a	n/a	n/a	n/a	n/a	n/a	2000	0	BLOCKED	n/a	n/a	+	0	interested	At this moment	4	3	12	217	NONE	n/a	1	n/a	n/a	n/a	n/a	n/a	0.0384319754035357	912.121355591967	-0.0224910005895266	1.94278393859793e-05	9.6740966427763	909.232613908873	4	3	0	1	0	0	0
125.844743949186	14.0614141831603	panas_none	139.906158132346	24	5	4	10	n/a	n/a	n/a	n/a	n/a	n/a	n/a	n/a	2000	0	BLOCKED	n/a	n/a	+	0	scared	At this moment	5	3	12	217	NONE	n/a	0	705.410158063607	0.310397555789921	-6.18294393540666e-05	12.2169491886916	1081.46566791511	0.378170637970792	n/a	n/a	n/a	n/a	1056.56365883807	8	4	0	1	0	0	0
140.890322471449	2.51874986115658	reward_rtpj	143.409072332606	25	1	5	10	750	250	250	250	0	0	0	0	2000	0	BLOCKED	0.75	1	8	1	enthusiastic	At this moment	1	3	12	217	RTPJ	407.028566529974	0.377028714107366	n/a	n/a	n/a	n/a	1056.55911823647	0	919.977320181955	-0.40954529676407	0.000404779347736526	43.6652353449377	920.146810146042	1	1	1	0	0	0	0
144.409841036892	2.51880557458475	reward_rtpj	146.928646611476	26	1	5	10	750	250	250	250	0	0	0	0	2000	0	BLOCKED	0.75	1	10	1	afraid	At this moment	2	3	12	217	RTPJ	790.652203271165	0.631710362047441	n/a	n/a	n/a	n/a	1011.73220338983	0.468870099923136	n/a	n/a	n/a	n/a	920.975397973951	8	2	1	0	0	0	0
147.929355370933	2.51872165182604	reward_rtpj	150.448077022759	27	1	5	10	750	250	250	250	0	0	0	0	2000	0	BLOCKED	0.75	-1	3	1	excited	At this moment	1	3	12	217	RTPJ	506.822955768555	0.377028714107366	n/a	n/a	n/a	n/a	1067.17635270541	0.297463489623367	n/a	n/a	n/a	n/a	972.724288840263	4	3	1	0	0	0	0
151.449282971684	2.5184226329103	reward_rtpj	153.967705604594	28	1	5	10	750	250	250	250	0	0	0	0	2000	0	BLOCKED	0.75	-1	2	1	inspired	At this moment	1	3	12	217	RTPJ	606.672705814242	0.379525593008739	n/a	n/a	n/a	n/a	1069.32997987928	0.38739431206764	n/a	n/a	n/a	n/a	968.607277289837	6	4	1	0	0	0	0
154.968458441131	2.51875902919099	reward_rtpj	157.487217470322	29	1	5	10	750	250	250	250	0	0	0	0	2000	0	BLOCKED	0.75	-1	9	-1	determined	At this moment	5	3	12	217	RTPJ	473.391371684149	0.6729088639201	n/a	n/a	n/a	n/a	1065.10305343511	0	1160.55082996897	-0.657522907113793	0.000421062170437324	48.6502888772327	959.292083013067	3	5	1	0	0	0	0
158.471416013239	2.51867686951161	reward_rtpj	160.990092882751	30	1	5	10	750	250	250	250	0	0	0	0	2000	0	BLOCKED	0.75	-1	2	1	jittery	At this moment	2	3	12	217	RTPJ	1057.67151009291	0	4943.95342209144	-3.6438516046039	0.000834232394608238	18.6411247032734	1014.86766541823	0.431206764027671	n/a	n/a	n/a	n/a	893.832432432432	2	6	1	0	0	0	0
161.990774843341	2.51884577288664	reward_rtpj	164.509620616227	31	1	5	10	750	250	250	250	0	0	0	0	2000	0	BLOCKED	0.75	-1	2	1	enthusiastic	At this moment	2	3	12	217	RTPJ	707.258719416335	0.717852684144819	n/a	n/a	n/a	n/a	1091.72123893805	0.694850115295926	n/a	n/a	n/a	n/a	950.92443324937	8	7	1	0	0	0	0
165.510380857712	2.51878582805395	reward_rtpj	168.029166685766	32	1	5	10	750	250	250	250	0	0	0	0	2000	0	BLOCKED	0.75	1	0	-1	inspired	At this moment	1	3	12	217	RTPJ	707.405055323616	0.602996254681648	n/a	n/a	n/a	n/a	1036.47798742138	0.378170637970792	n/a	n/a	n/a	n/a	938.216316440049	2	8	1	0	0	0	0
169.029866982425	6.02172189054639	panas_none	175.051588872971	33	5	6	10	n/a	n/a	n/a	n/a	n/a	n/a	n/a	n/a	2000	0	BLOCKED	n/a	n/a	+	0	excited	At this moment	3	3	12	217	NONE	n/a	1	n/a	n/a	n/a	n/a	n/a	0.51575710991545	n/a	n/a	n/a	n/a	940.934920634921	8	1	0	1	0	1	0
176.035606523549	6.02153183017487	panas_none	182.057138353724	34	5	6	10	n/a	n/a	n/a	n/a	n/a	n/a	n/a	n/a	2000	0	BLOCKED	n/a	n/a	+	0	upset	At this moment	2	3	12	217	NONE	n/a	1	n/a	n/a	n/a	n/a	n/a	1	n/a	n/a	n/a	n/a	n/a	3	2	0	1	0	1	0
183.041199728768	6.02169191813098	panas_none	189.062891646899	35	5	6	10	n/a	n/a	n/a	n/a	n/a	n/a	n/a	n/a	2000	0	BLOCKED	n/a	n/a	+	0	active	At this moment	3	3	12	217	NONE	n/a	0.952559300873908	n/a	n/a	n/a	n/a	1000.02631578947	0	813.860422443778	0.392282409375376	-0.000164347252067978	17.2620743678591	1005.51114527287	4	3	0	1	0	1	0
190.046943501292	6.50521749218555	panas_none	196.552160993477	36	5	6	10	n/a	n/a	n/a	n/a	n/a	n/a	n/a	n/a	2000	0	BLOCKED	n/a	n/a	+	0	strong	At this moment	5	3	12	217	NONE	n/a	0.374531835205993	n/a	n/a	n/a	n/a	1341.5369261477	0.233666410453497	847.132303532029	0.275224887310799	-5.3525454097951e-05	26.3270804201113	1039.89869608826	4	4	0	1	0	1	0
197.536534786867	2.51862362439743	reward_rtpj	200.055158411264	37	1	7	10	750	250	250	250	0	0	0	0	2000	0	BLOCKED	0.75	1	7	1	hostile	At this moment	3	3	12	217	RTPJ	589.522842682898	0.375780274656679	n/a	n/a	n/a	n/a	1204.218	0.34435049961568	n/a	n/a	n/a	n/a	953.827667057444	2	1	1	0	0	0	0
201.039204271175	2.51874034050664	reward_rtpj	203.557944611682	38	1	7	10	750	250	250	250	0	0	0	0	2000	0	BLOCKED	0.75	1	8	1	alert	At this moment	2	3	12	217	RTPJ	773.573568701744	0.820224719101124	n/a	n/a	n/a	n/a	1042.875	0.550345887778632	n/a	n/a	n/a	n/a	1012.15897435897	6	2	1	0	0	0	0
204.558658660389	2.51877383908817	reward_rtpj	207.077432499478	39	1	7	10	750	250	250	250	0	0	0	0	2000	0	BLOCKED	0.75	1	10	1	distressed	At this moment	3	3	12	217	RTPJ	770.775908242911	0.421972534332085	n/a	n/a	n/a	n/a	1130.1101511879	0.579554189085319	n/a	n/a	n/a	n/a	1021.08957952468	4	3	1	0	0	0	0
208.078455440363	2.51858942058496	reward_rtpj	210.597044860948	40	1	7	10	750	250	250	250	0	0	0	0	2000	0	BLOCKED	0.75	1	8	1	scared	At this moment	1	3	12	217	RTPJ	873.818602008745	0.421972534332085	n/a	n/a	n/a	n/a	1014.16846652268	0.304381245196003	n/a	n/a	n/a	n/a	1053.34033149171	3	4	1	0	0	0	0
211.58110623599	2.51887750838139	reward_rtpj	214.099983744372	41	1	7	10	750	250	250	250	0	0	0	0	2000	0	BLOCKED	0.75	-1	6	-1	jittery	At this moment	4	3	12	217	RTPJ	624.594799399376	0.786516853932584	n/a	n/a	n/a	n/a	1108.80116959064	0.493466564181399	n/a	n/a	n/a	n/a	1147.67071320182	3	5	1	0	0	0	0
215.100649484599	2.5187512716241	reward_rtpj	217.619400756223	42	1	7	10	750	250	250	250	0	0	0	0	2000	0	BLOCKED	0.75	-1	10	-1	active	At this moment	3	3	12	217	RTPJ	891.458249660209	0.392009987515606	n/a	n/a	n/a	n/a	1121.24640657084	0.264411990776326	n/a	n/a	n/a	n/a	1039.38453500522	2	6	1	0	0	0	0
218.60519242114	2.51699453550017	reward_rtpj	221.12218695664	43	1	7	10	750	250	250	250	0	0	0	0	2000	0	BLOCKED	0.75	1	8	1	alert	At this moment	1	3	12	217	RTPJ	888.347113005817	0.374531835205993	n/a	n/a	n/a	n/a	1101.27744510978	0.441967717140661	n/a	n/a	n/a	n/a	1070.84848484848	3	7	1	0	0	0	0
222.10631286053	2.51874069312214	reward_rtpj	224.625053553652	44	1	7	10	750	250	250	250	0	0	0	0	2000	0	BLOCKED	0.75	1	7	1	enthusiastic	At this moment	4	3	12	217	RTPJ	806.699786771089	0.374531835205993	n/a	n/a	n/a	n/a	1267.42315369261	0.388931591083782	n/a	n/a	n/a	n/a	975.435220125786	2	8	1	0	0	0	0
225.625903359767	6.02162985760347	panas_none	231.647533217371	45	5	8	10	n/a	n/a	n/a	n/a	n/a	n/a	n/a	n/a	2000	0	BLOCKED	n/a	n/a	+	0	upset	At this moment	1	3	12	217	NONE	n/a	0.99250936329588	n/a	n/a	n/a	n/a	328.166666666667	0.307455803228286	n/a	n/a	n/a	n/a	1122.99667036626	10	1	0	1	0	1	0
232.631561446447	6.02158648575656	panas_none	238.653147932203	46	5	8	10	n/a	n/a	n/a	n/a	n/a	n/a	n/a	n/a	2000	0	BLOCKED	n/a	n/a	+	0	hostile	At this moment	1	3	12	217	NONE	n/a	1	n/a	n/a	n/a	n/a	n/a	0.395080707148347	n/a	n/a	n/a	n/a	899.51334180432	12	2	0	1	0	1	0
239.637175103432	6.02165983001703	panas_none	245.658834933449	47	5	8	10	n/a	n/a	n/a	n/a	n/a	n/a	n/a	n/a	2000	0	BLOCKED	n/a	n/a	+	0	jittery	At this moment	1	3	12	217	NONE	n/a	0.883895131086142	n/a	n/a	n/a	n/a	986.408602150538	0.149116064565719	769.876720704324	0.296683131651503	-0.000127964381524898	14.0250229553931	907.630532971996	16	3	0	1	0	1	0
246.659602227267	5.37107295250522	panas_none	252.030675179772	48	5	8	10	n/a	n/a	n/a	n/a	n/a	n/a	n/a	n/a	2000	0	BLOCKED	n/a	n/a	+	0	determined	At this moment	3	3	12	217	NONE	n/a	0.66167290886392	n/a	n/a	n/a	n/a	979.966789667897	0.521906225980015	n/a	n/a	n/a	n/a	1076.50803858521	8	4	0	1	0	1	0
253.014735849584	2.51879534870386	reward_vlpfc	255.533531198287	49	2	9	10	0	0	0	0	250	250	250	750	2000	0	BLOCKED	0.75	1	2	-1	nervous	At this moment	5	3	12	217	VLPFC	657.538714662194	0.387016229712859	n/a	n/a	n/a	n/a	1183.47046843177	0.58109146810146	n/a	n/a	n/a	n/a	898.045871559633	3	1	1	0	0	0	0
256.53425899904	2.51870754716174	reward_vlpfc	259.052966546202	50	2	9	10	0	0	0	0	250	250	250	750	2000	0	BLOCKED	0.75	-1	0	1	guilty	At this moment	4	3	12	217	VLPFC	974.427183078602	0.374531835205993	n/a	n/a	n/a	n/a	1084.10578842315	0.705611068408916	n/a	n/a	n/a	n/a	1069.31331592689	3	2	1	0	0	0	0
260.053783206351	2.51878018618748	reward_vlpfc	262.572563392539	51	2	9	10	0	0	0	0	250	250	250	750	2000	0	BLOCKED	0.75	-1	1	1	upset	At this moment	3	3	12	217	VLPFC	791.52175591886	0.374531835205993	n/a	n/a	n/a	n/a	1183.23353293413	0.529592621060722	n/a	n/a	n/a	n/a	1023.71405228758	4	3	1	0	0	0	0
263.573289782828	2.51878230188788	reward_vlpfc	266.092072084716	52	2	9	10	0	0	0	0	250	250	250	750	2000	0	BLOCKED	0.75	-1	2	1	afraid	At this moment	2	3	12	217	VLPFC	890.844344081357	0	928.650218775405	0.0953175050024898	1.30095268260893e-05	23.6952558312825	1187.16354556804	0.565718677940046	n/a	n/a	n/a	n/a	1174.75575221239	4	4	1	0	0	0	0
267.0778863171	2.51715991270544	reward_vlpfc	269.595046229806	53	2	9	10	0	0	0	0	250	250	250	750	2000	0	BLOCKED	0.75	-1	6	-1	distressed	At this moment	3	3	12	217	VLPFC	1088.47645278834	0	-778.757242799113	1.8509793022801	-0.000403402690193013	16.4307281449241	1307.93632958802	0.230591852421214	1161.28719018518	-0.309665385752662	0.000148814382561474	58.5523690561464	1024.36963036963	1	5	1	0	0	0	0
270.59576239421	2.51865994391216	reward_vlpfc	273.114422338122	54	2	9	10	0	0	0	0	250	250	250	750	2000	0	BLOCKED	0.75	-1	4	1	irritable	At this moment	2	3	12	217	VLPFC	924.406748941168	0.367041198501873	n/a	n/a	n/a	n/a	1228.84418145957	0.690238278247502	n/a	n/a	n/a	n/a	1076.89081885856	4	6	1	0	0	0	0
274.098475250367	2.51871354164183	reward_vlpfc	276.617188792009	55	2	9	10	0	0	0	0	250	250	250	750	2000	0	BLOCKED	0.75	-1	2	1	attentive	At this moment	4	3	12	217	VLPFC	791.445238105953	0.379525593008739	n/a	n/a	n/a	n/a	1100.08249496982	0.668716372021522	n/a	n/a	n/a	n/a	988	3	7	1	0	0	0	0
277.601686706459	2.5184275695421	reward_vlpfc	280.120114276001	56	2	9	10	0	0	0	0	250	250	250	750	2000	0	BLOCKED	0.75	-1	4	1	interested	At this moment	5	3	12	217	VLPFC	824.352128621191	0.379525593008739	n/a	n/a	n/a	n/a	1068.05432595573	0.619523443504996	n/a	n/a	n/a	n/a	957.515151515152	3	8	1	0	0	0	0
281.125921872141	6.03322071933184	panas_none	287.159142591473	57	5	10	10	n/a	n/a	n/a	n/a	n/a	n/a	n/a	n/a	2000	0	BLOCKED	n/a	n/a	+	0	ashamed	At this moment	1	3	12	217	NONE	n/a	0.9812734082397	n/a	n/a	n/a	n/a	304.333333333333	0.229823212913144	956.981210635822	-0.0992393061043946	0.000121746540892814	29.0452893023529	935.071856287425	9	1	0	1	0	1	1
288.160016375518	6.02147964291083	panas_none	294.181496018428	58	5	10	10	n/a	n/a	n/a	n/a	n/a	n/a	n/a	n/a	2000	0	BLOCKED	n/a	n/a	+	0	hostile	At this moment	1	3	12	217	NONE	n/a	1	n/a	n/a	n/a	n/a	n/a	0.104534973097617	946.934687373285	0.248187393245911	-0.000129119964120367	17.2075098237063	1047.16223175966	7	2	0	1	0	1	1
295.182336303895	6.03825361669993	panas_none	301.220589920595	59	5	10	10	n/a	n/a	n/a	n/a	n/a	n/a	n/a	n/a	2000	0	BLOCKED	n/a	n/a	+	0	proud	At this moment	2	3	12	217	NONE	n/a	1	n/a	n/a	n/a	n/a	n/a	0.155265180630284	1173.78421433079	-0.995179634159975	0.000664014625828716	47.3186071365326	866.079162875341	9	3	0	1	0	1	1
302.221372376928	7.52281129967236	panas_none	309.7441836766	60	5	10	10	n/a	n/a	n/a	n/a	n/a	n/a	n/a	n/a	2000	0	BLOCKED	n/a	n/a	+	0	inspired	At this moment	4	3	12	217	NONE	n/a	0	2628.87541436475	-1.43762941299048	0.000355674946836809	16.7739957226315	1197.2759051186	0.449654112221368	n/a	n/a	n/a	n/a	1128.14525139665	4	4	0	1	0	1	1
310.74487092644	2.5188366048522	punish_rtpj	313.263707531292	61	3	11	10	750	250	250	250	0	0	0	0	2000	0	BLOCKED	0.25	1	3	-1	afraid	At this moment	2	3	12	217	RTPJ	623.480883419514	0.372034956304619	n/a	n/a	n/a	n/a	1125.51292246521	0.7847809377402	n/a	n/a	n/a	n/a	1023.18928571429	2	1	0	0	1	0	0
314.264626097653	2.51858730488271	punish_rtpj	316.783213402536	62	3	11	10	750	250	250	250	0	0	0	0	2000	0	BLOCKED	0.25	-1	4	1	excited	At this moment	3	3	12	217	RTPJ	840.146885987371	0.378277153558052	n/a	n/a	n/a	n/a	1116.12449799197	0.86010760953113	n/a	n/a	n/a	n/a	963.010989010989	2	2	0	0	1	0	0
317.767344243057	2.51882214757052	punish_rtpj	320.286166390628	63	3	11	10	750	250	250	250	0	0	0	0	2000	0	BLOCKED	0.25	-1	6	-1	interested	At this moment	4	3	12	217	RTPJ	740.708639565855	0.35705368289638	n/a	n/a	n/a	n/a	1074.14368932039	0.707148347425058	n/a	n/a	n/a	n/a	959.275590551181	2	3	0	0	1	0	0
321.286853640467	2.5186973212771	punish_rtpj	323.805550961744	64	3	11	10	750	250	250	250	0	0	0	0	2000	0	BLOCKED	0.25	1	10	1	scared	At this moment	3	3	12	217	RTPJ	624.592683698982	0.359550561797753	n/a	n/a	n/a	n/a	1070.01949317739	0.644119907763259	n/a	n/a	n/a	n/a	661.002159827214	3	4	0	0	1	0	0
324.806388426276	2.51872976200843	punish_rtpj	327.325118188284	65	3	11	10	750	250	250	250	0	0	0	0	2000	0	BLOCKED	0.25	1	0	-1	guilty	At this moment	1	3	12	217	RTPJ	740.263637360185	0.398252184769039	n/a	n/a	n/a	n/a	1008.87966804979	0.770945426594927	n/a	n/a	n/a	n/a	896.479865771812	3	5	0	0	1	0	0
328.309226108724	2.51874104574136	punish_rtpj	330.827967154466	66	3	11	10	750	250	250	250	0	0	0	0	2000	0	BLOCKED	0.25	-1	9	-1	irritable	At this moment	3	3	12	217	RTPJ	690.002013441175	0.535580524344569	n/a	n/a	n/a	n/a	1071.69892473118	0.922367409684858	n/a	n/a	n/a	n/a	813.584158415842	3	6	0	0	1	0	0
331.828699891852	2.51877137077224	punish_rtpj	334.347471262624	67	3	11	10	750	250	250	250	0	0	0	0	2000	0	BLOCKED	0.25	1	2	-1	inspired	At this moment	2	3	12	217	RTPJ	673.78552656807	0.439450686641698	n/a	n/a	n/a	n/a	1043.41648106904	0.733282090699462	n/a	n/a	n/a	n/a	889.317002881844	5	7	0	0	1	0	0
335.336184709061	2.51415456104462	punish_rtpj	337.850339270106	68	3	11	10	750	250	250	250	0	0	0	0	2000	0	BLOCKED	0.25	-1	10	-1	upset	At this moment	1	3	12	217	RTPJ	401.728738363832	0.337078651685393	n/a	n/a	n/a	n/a	1043.80790960452	0.662567255956956	n/a	n/a	n/a	n/a	770.371298405467	4	8	0	0	1	0	0
338.85115522502	6.02147541151379	panas_none	344.872630636534	69	5	12	10	n/a	n/a	n/a	n/a	n/a	n/a	n/a	n/a	2000	0	BLOCKED	n/a	n/a	+	0	attentive	At this moment	1	3	12	217	NONE	n/a	1	n/a	n/a	n/a	n/a	n/a	0.331283627978478	n/a	n/a	n/a	n/a	969.149425287356	12	1	0	1	0	0	0
345.873590459039	6.02147259058057	panas_none	351.89506304962	70	5	12	10	n/a	n/a	n/a	n/a	n/a	n/a	n/a	n/a	2000	0	BLOCKED	n/a	n/a	+	0	active	At this moment	3	3	12	217	NONE	n/a	1	n/a	n/a	n/a	n/a	n/a	0.528055342044581	n/a	n/a	n/a	n/a	978.910423452769	10	2	0	1	0	0	0
352.897452732621	6.01996374395674	panas_none	358.917416476578	71	5	12	10	n/a	n/a	n/a	n/a	n/a	n/a	n/a	n/a	2000	0	BLOCKED	n/a	n/a	+	0	afraid	At this moment	1	3	12	217	NONE	n/a	1	n/a	n/a	n/a	n/a	n/a	0.167563412759416	887.95912820802	0.1434213216778	-7.60362473208001e-05	17.0367578792936	944.894736842105	4	3	0	1	0	0	0
359.91826416699	7.97300049613227	panas_none	367.891264663123	72	5	12	10	n/a	n/a	n/a	n/a	n/a	n/a	n/a	n/a	2000	0	BLOCKED	n/a	n/a	+	0	proud	At this moment	2	3	12	217	NONE	n/a	0.559300873907616	n/a	n/a	n/a	n/a	1033.27195467422	0.702536510376633	n/a	n/a	n/a	n/a	938.927648578811	19	4	0	1	0	0	0
368.875615536431	2.51863490813037	punish_vlpfc	371.394250444561	73	4	13	10	0	0	0	0	250	250	250	750	2000	0	BLOCKED	0.25	1	6	1	determined	At this moment	3	3	12	217	VLPFC	656.869095655158	0.333333333333333	n/a	n/a	n/a	n/a	1028.55992509363	0.853189853958493	n/a	n/a	n/a	n/a	719.225130890052	6	1	0	0	1	0	0
372.395040305845	2.51872165182607	punish_vlpfc	374.913761957672	74	4	13	10	0	0	0	0	250	250	250	750	2000	0	BLOCKED	0.25	1	9	1	irritable	At this moment	5	3	12	217	VLPFC	723.360958496109	0.382022471910112	n/a	n/a	n/a	n/a	1037.6303030303	0.6771714066103	n/a	n/a	n/a	n/a	913.997619047619	3	2	0	0	1	0	0
375.914529251492	2.51877489693834	punish_vlpfc	378.43330414843	75	4	13	10	0	0	0	0	250	250	250	750	2000	0	BLOCKED	0.25	1	3	-1	afraid	At this moment	4	3	12	217	VLPFC	740.318292938173	0.600499375780275	n/a	n/a	n/a	n/a	1271.709375	0.860876249039201	n/a	n/a	n/a	n/a	1046.92817679558	1	3	0	0	1	0	0
379.434182869108	2.51876502367298	punish_vlpfc	381.952947892781	76	4	13	10	0	0	0	0	250	250	250	750	2000	0	BLOCKED	0.25	-1	9	-1	proud	At this moment	5	3	12	217	VLPFC	640.493578674272	0.576779026217228	n/a	n/a	n/a	n/a	1095.00589970501	0.475019215987702	n/a	n/a	n/a	n/a	1083.50366032211	9	4	0	0	1	0	0
382.953633732155	2.51870190529337	punish_vlpfc	385.472335637448	77	4	13	10	0	0	0	0	250	250	250	750	2000	0	BLOCKED	0.25	1	4	-1	strong	At this moment	1	3	12	217	VLPFC	656.878616305068	0.443196004993758	n/a	n/a	n/a	n/a	1186.98206278027	0.992313604919293	n/a	n/a	n/a	n/a	380	0	5	0	0	1	0	0
386.473153708065	2.51872059397584	punish_vlpfc	388.991874302041	78	4	13	10	0	0	0	0	250	250	250	750	2000	0	BLOCKED	0.25	1	3	-1	alert	At this moment	5	3	12	217	VLPFC	1107.22860595398	0.444444444444444	n/a	n/a	n/a	n/a	1002.30112359551	0.818601076095311	n/a	n/a	n/a	n/a	952.135593220339	3	6	0	0	1	0	0
389.994258695791	2.51710631497576	punish_vlpfc	392.511365010766	79	4	13	10	0	0	0	0	250	250	250	750	2000	0	BLOCKED	0.25	-1	10	-1	afraid	At this moment	4	3	12	217	VLPFC	838.70327344723	0.875156054931336	n/a	n/a	n/a	n/a	830.12	0.491929285165257	n/a	n/a	n/a	n/a	847.617246596067	5	7	0	0	1	0	0
393.495526528938	2.51869767389263	punish_vlpfc	396.01422420283	80	4	13	10	0	0	0	0	250	250	250	750	2000	0	BLOCKED	0.25	1	4	-1	guilty	At this moment	4	3	12	217	VLPFC	707.215700184926	0.881398252184769	n/a	n/a	n/a	n/a	967.526315789474	0.611068408916218	n/a	n/a	n/a	n/a	808.430830039526	7	8	0	0	1	0	0
397.015089876693	6.02168662888369	panas_none	403.036776505576	81	5	14	10	n/a	n/a	n/a	n/a	n/a	n/a	n/a	n/a	2000	0	BLOCKED	n/a	n/a	+	0	interested	At this moment	3	3	12	217	NONE	n/a	1	n/a	n/a	n/a	n/a	n/a	0.519600307455803	n/a	n/a	n/a	n/a	1057.96	5	1	0	1	0	0	1
404.037396758255	6.02156568137372	panas_none	410.058962439628	82	5	14	10	n/a	n/a	n/a	n/a	n/a	n/a	n/a	n/a	2000	0	BLOCKED	n/a	n/a	+	0	jittery	At this moment	2	3	12	217	NONE	n/a	0.990012484394507	n/a	n/a	n/a	n/a	879.75	0	995.522410232696	0.0543359581432377	-1.42643541692745e-05	13.3531728365734	1029.26518063028	3	2	0	1	0	0	1
411.059686008982	6.02166406141782	panas_none	417.0813500704	83	5	14	10	n/a	n/a	n/a	n/a	n/a	n/a	n/a	n/a	2000	0	BLOCKED	n/a	n/a	+	0	enthusiastic	At this moment	3	3	12	217	NONE	n/a	1	n/a	n/a	n/a	n/a	n/a	0.130668716372022	911.307278236882	0.0683756537763207	-1.48928823085936e-05	14.4656300724137	952.888594164456	3	3	0	1	0	0	1
418.0821720198	9.80796321220885	panas_none	427.890135232009	84	5	14	10	n/a	n/a	n/a	n/a	n/a	n/a	n/a	n/a	2000	0	BLOCKED	n/a	n/a	+	0	determined	At this moment	5	3	12	217	NONE	n/a	0.870162297128589	n/a	n/a	n/a	n/a	947.307692307692	0.447348193697156	n/a	n/a	n/a	n/a	969.26842837274	15	4	0	1	0	0	1
428.890936377026	2.51866840671374	punish_vlpfc	431.40960478374	85	4	15	10	0	0	0	0	250	250	250	750	2000	0	BLOCKED	0.25	-1	9	-1	excited	At this moment	4	3	12	217	VLPFC	640.228410957381	0.434456928838951	n/a	n/a	n/a	n/a	1030.30905077263	0.856264411990776	n/a	n/a	n/a	n/a	918.235294117647	4	1	0	0	1	0	0
432.410393234557	2.51874351405729	punish_vlpfc	434.929136748614	86	4	15	10	0	0	0	0	250	250	250	750	2000	0	BLOCKED	0.25	1	4	-1	distressed	At this moment	2	3	12	217	VLPFC	740.365543570369	0.415730337078652	n/a	n/a	n/a	n/a	1033.59829059829	0.874711760184473	n/a	n/a	n/a	n/a	928.368098159509	1	2	0	0	1	0	0
435.929969981745	2.5188383679353	punish_vlpfc	438.44880834968	87	4	15	10	0	0	0	0	250	250	250	750	2000	0	BLOCKED	0.25	-1	6	-1	interested	At this moment	4	3	12	217	VLPFC	723.673376845196	0.799001248439451	n/a	n/a	n/a	n/a	910.347826086957	0.740199846272098	n/a	n/a	n/a	n/a	840.789940828402	3	3	0	0	1	0	0
439.449645461595	2.51853335453757	punish_vlpfc	441.968178816132	88	4	15	10	0	0	0	0	250	250	250	750	2000	0	BLOCKED	0.25	1	9	1	guilty	At this moment	4	3	12	217	VLPFC	690.073242003098	0.575530586766542	n/a	n/a	n/a	n/a	908.335294117647	0.969254419677171	n/a	n/a	n/a	n/a	605.325	2	4	0	0	1	0	0
442.969026506545	2.51878547543845	punish_vlpfc	445.487811981983	89	4	15	10	0	0	0	0	250	250	250	750	2000	0	BLOCKED	0.25	-1	10	-1	nervous	At this moment	3	3	12	217	VLPFC	1074.97758239694	0.686641697877653	n/a	n/a	n/a	n/a	851.250996015936	0.872405841660261	n/a	n/a	n/a	n/a	767.89156626506	4	5	0	0	1	0	0
446.488488653325	2.51875726610791	punish_vlpfc	449.007245919432	90	4	15	10	0	0	0	0	250	250	250	750	2000	0	BLOCKED	0.25	1	1	-1	enthusiastic	At this moment	3	3	12	217	VLPFC	689.741429740563	0.993757802746567	n/a	n/a	n/a	n/a	788	0.81706379707917	n/a	n/a	n/a	n/a	934.63025210084	3	6	0	0	1	0	0
450.00809219938	2.51873893004097	punish_vlpfc	452.526831129421	91	4	15	10	0	0	0	0	250	250	250	750	2000	0	BLOCKED	0.25	1	10	1	ashamed	At this moment	1	3	12	217	VLPFC	1059.24982219376	0.616729088639201	n/a	n/a	n/a	n/a	966.263843648208	0.783243658724058	n/a	n/a	n/a	n/a	991.822695035461	7	7	0	0	1	0	0
453.510931997526	2.51886939820088	punish_vlpfc	456.029801395727	92	4	15	10	0	0	0	0	250	250	250	750	2000	0	BLOCKED	0.25	1	0	-1	interested	At this moment	5	3	12	217	VLPFC	873.528751129285	0.586766541822722	n/a	n/a	n/a	n/a	989.812688821752	0.837817063797079	n/a	n/a	n/a	n/a	872.369668246445	4	8	0	0	1	0	0
457.030697042005	6.02135799016986	panas_none	463.052055032175	93	5	16	10	n/a	n/a	n/a	n/a	n/a	n/a	n/a	n/a	2000	0	BLOCKED	n/a	n/a	+	0	upset	At this moment	2	3	12	217	NONE	n/a	1	n/a	n/a	n/a	n/a	n/a	0.727901614142967	n/a	n/a	n/a	n/a	993.516949152542	7	1	0	1	0	0	1
464.052824794311	6.02142639779674	panas_none	470.074251192108	94	5	16	10	n/a	n/a	n/a	n/a	n/a	n/a	n/a	n/a	2000	0	BLOCKED	n/a	n/a	+	0	guilty	At this moment	1	3	12	217	NONE	n/a	1	n/a	n/a	n/a	n/a	n/a	0.448885472713297	n/a	n/a	n/a	n/a	790.478382147838	7	2	0	1	0	0	1
471.075273780379	6.02153817727412	panas_none	477.096811957654	95	5	16	10	n/a	n/a	n/a	n/a	n/a	n/a	n/a	n/a	2000	0	BLOCKED	n/a	n/a	+	0	hostile	At this moment	1	3	12	217	NONE	n/a	1	n/a	n/a	n/a	n/a	n/a	0.108378170637971	931.772728606839	0.0870657197332069	-4.04442631002e-05	12.8001345830438	970.139655172414	3	3	0	1	0	0	1
478.097484750213	14.5118572636023	panas_none	492.609342013815	96	5	16	10	n/a	n/a	n/a	n/a	n/a	n/a	n/a	n/a	2000	0	BLOCKED	n/a	n/a	+	0	proud	At this moment	4	3	12	217	NONE	n/a	0.393258426966292	n/a	n/a	n/a	n/a	1200.55967078189	0.256725595695619	n/a	n/a	n/a	n/a	1113.22647362978	9	4	0	1	0	0	1
