onset	duration	trial_type	offset	trial	block	blockCntr	frequency	amplitude_1	amplitude_2	amplitude_3	amplitude_4	amplitude_5	amplitude_6	amplitude_7	amplitude_8	transition	sham	mode	rewardFraction	guess	outcome	correct	word	when	answer	runNr	scanNr	subjectNr	target	reactionTime	outcomeEyeClosed	outcomeParms_1	outcomeParms_2	outcomeParms_3	outcomeSigma	outcomePupilArea	guessEyeClosed	guessParms_1	guessParms_2	guessParms_3	guessSigma	guessPupilArea	nrBlinks	trialInBlock	isReward	isPanas	isPunish	beforePanasReward	beforePanasVLPFC
20.3153061281443	2.50739403152466	punish_rtpj	22.8227001596689	1	3	1	10	750	250	250	250	0	0	0	0	2000	0	BLOCKED	0.25	1	3	-1	distressed	At this moment	3	3	8	232	RTPJ	846.147092223167	0.677902621722846	n/a	n/a	n/a	n/a	2839.0503875969	0	2499.39546073409	0.377295583194196	-0.000107307538174819	22.8657758716558	2727.64335126826	1	1	0	0	1	0	0
23.8068182779551	2.5187257399559	punish_rtpj	26.325544017911	2	3	1	10	750	250	250	250	0	0	0	0	2000	0	BLOCKED	0.25	1	7	1	strong	At this moment	2	3	8	232	RTPJ	707.421112537384	0.31960049937578	n/a	n/a	n/a	n/a	2138.32660550459	0	1864.94886928317	0.641938136333243	-4.49546179643202e-07	46.273759241964	2409.71022290546	1	2	0	0	1	0	0
27.3262806353569	2.51881812572479	punish_rtpj	29.8450987610817	3	3	1	10	750	250	250	250	0	0	0	0	2000	0	BLOCKED	0.25	-1	10	-1	excited	At this moment	1	3	8	232	RTPJ	1057.3965703249	0.48314606741573	n/a	n/a	n/a	n/a	2320.44685990338	0.345119139123751	n/a	n/a	n/a	n/a	2425.79694835681	2	3	0	0	1	0	0
30.8458311470747	2.51874654436111	punish_rtpj	33.3645776914358	4	3	1	10	750	250	250	250	0	0	0	0	2000	0	BLOCKED	0.25	1	4	-1	irritable	At this moment	4	3	8	232	RTPJ	491.614761471748	0.500624219725343	n/a	n/a	n/a	n/a	2028.0775	0	1406.16348112349	0.790184749258368	-0.000219624569827625	27.7286942014452	1886.80860876249	1	4	0	0	1	0	0
34.348822399497	2.51868942022324	punish_rtpj	36.8675118197203	5	3	1	10	750	250	250	250	0	0	0	0	2000	0	BLOCKED	0.25	1	0	-1	distressed	At this moment	5	3	8	232	RTPJ	474.0248016119	0.387016229712859	n/a	n/a	n/a	n/a	1828.95926680244	0	1147.57054662	0.790172008000658	-0.00018922004553989	28.4665178370642	1655.41199077633	1	5	0	0	1	0	0
37.8683189606667	2.51867496311664	punish_rtpj	40.3869939237833	6	3	1	10	750	250	250	250	0	0	0	0	2000	0	BLOCKED	0.25	1	0	-1	ashamed	At this moment	1	3	8	232	RTPJ	323.04713511467	0.287141073657928	n/a	n/a	n/a	n/a	1497.54991243433	0	1216.92838237632	0.331871861920462	4.84747473326228e-05	44.6033718646468	1540.6379707917	3	6	0	0	1	0	0
41.3710436342955	2.5187631174326	punish_rtpj	43.8898067517281	7	3	1	10	750	250	250	250	0	0	0	0	2000	0	BLOCKED	0.25	-1	8	-1	attentive	At this moment	5	3	8	232	RTPJ	340.284477472305	0	3072.13950365733	-0.633574462006525	-2.93075860365447e-06	48.0503069771263	1728.34082397004	0	1052.44679267564	0.592653797580233	-7.1479478041962e-05	21.689344432224	1494.00384319754	0	7	0	0	1	0	0
44.8739982143641	2.5186837785244	punish_rtpj	47.3926819928884	8	3	1	10	750	250	250	250	0	0	0	0	2000	0	BLOCKED	0.25	1	7	1	active	At this moment	4	3	8	232	RTPJ	557.648691654205	0	18180.6577016777	-15.3588329189048	0.00339635849368682	46.304256587933	1082.37328339576	0	933.185799273879	0.751414673636048	-0.000187742869996202	24.6680265941467	1409.23443504996	0	8	0	0	1	0	0
48.3766964417696	6.00509637725353	panas_none	54.3817928190231	9	5	2	10	n/a	n/a	n/a	n/a	n/a	n/a	n/a	n/a	2000	0	BLOCKED	n/a	n/a	+	0	strong	At this moment	3	3	8	232	NONE	n/a	0	790.89400516354	0.298293232827339	-7.94576321873459e-05	24.2044564717164	1063.42197253433	0	384.481310784514	1.20126836579771	-0.000532198292598292	107.050374033152	952.325903151422	1	1	0	1	0	0	0
55.3658248987198	6.00495674097538	panas_none	61.3707816396952	10	5	2	10	n/a	n/a	n/a	n/a	n/a	n/a	n/a	n/a	2000	0	BLOCKED	n/a	n/a	+	0	determined	At this moment	4	3	8	232	NONE	n/a	0	2135.11136189699	-1.32358427451723	0.000359924954932662	20.2164108915761	961.734082397004	0	1103.68623995099	0.0428233431495032	-5.28765932528966e-05	19.6044598232426	1093.9715603382	2	2	0	1	0	0	0
62.3715901911259	6.00479524219036	panas_none	68.3763854333162	11	5	2	10	n/a	n/a	n/a	n/a	n/a	n/a	n/a	n/a	2000	0	BLOCKED	n/a	n/a	+	0	alert	At this moment	4	3	8	232	NONE	n/a	0	368.571910696119	0.421670259406276	-7.66995314982871e-05	22.048030040049	911.43695380774	0	1119.21374018603	-0.0561472524612055	-8.89554752651073e-05	18.5524691930015	994.619523443505	5	3	0	1	0	0	0
69.3606209731102	6.92219076871872	panas_none	76.2828117418289	12	5	2	10	n/a	n/a	n/a	n/a	n/a	n/a	n/a	n/a	2000	0	BLOCKED	n/a	n/a	+	0	interested	At this moment	5	3	8	232	NONE	n/a	0	2089.34071972064	-0.958190546241995	0.000230850100579648	20.6351737935739	1107.07365792759	0	612.101284962446	0.562270711539391	-0.000129345374015345	30.3898874426113	978.075326671791	0	4	0	1	0	0	0
77.2836040729284	2.51879732120037	punish_vlpfc	79.8024013941288	13	4	3	10	0	0	0	0	250	250	250	750	2000	0	BLOCKED	0.25	1	2	-1	guilty	At this moment	1	3	8	232	VLPFC	673.689744710922	0	2819.41029787294	-1.51974145969718	0.000344198587806986	25.1616087579728	1163.8102372035	0.268255188316679	n/a	n/a	n/a	n/a	862.186974789916	1	1	0	0	1	0	0
80.7865607687235	2.51868060481549	punish_vlpfc	83.305241373539	14	4	3	10	0	0	0	0	250	250	250	750	2000	0	BLOCKED	0.25	1	3	-1	irritable	At this moment	2	3	8	232	VLPFC	557.179710626602	0.917602996254682	n/a	n/a	n/a	n/a	1076.33333333333	0	562.211015590446	0.789457481500939	-0.000264831470898195	27.7877167724249	1004.48808608762	1	2	0	0	1	0	0
84.3059772857428	2.51887278151513	punish_vlpfc	86.8248500672579	15	4	3	10	0	0	0	0	250	250	250	750	2000	0	BLOCKED	0.25	-1	1	1	ashamed	At this moment	4	3	8	232	VLPFC	456.71270442009	0.453183520599251	n/a	n/a	n/a	n/a	1327.49771689498	0.286702536510377	n/a	n/a	n/a	n/a	1430.28879310345	2	3	0	0	1	0	0
87.8091124058962	2.51855119442939	punish_vlpfc	90.3276636003256	16	4	3	10	0	0	0	0	250	250	250	750	2000	0	BLOCKED	0.25	-1	9	-1	inspired	At this moment	2	3	8	232	VLPFC	740.79104745388	0.631710362047441	n/a	n/a	n/a	n/a	1426.70169491525	0.331283627978478	n/a	n/a	n/a	n/a	1472.9183908046	2	4	0	0	1	0	0
91.3285398541689	2.51867707884311	punish_vlpfc	93.847216933012	17	4	3	10	0	0	0	0	250	250	250	750	2000	0	BLOCKED	0.25	-1	9	-1	determined	At this moment	1	3	8	232	VLPFC	473.561815261841	0.775280898876405	n/a	n/a	n/a	n/a	1544.5	0	987.026104795555	0.344946280138714	8.28588287898818e-06	26.0467635568984	1287.10069177556	1	5	0	0	1	0	0
94.848047699213	2.51868765735627	punish_vlpfc	97.3667353565693	18	4	3	10	0	0	0	0	250	250	250	750	2000	0	BLOCKED	0.25	1	3	-1	distressed	At this moment	5	3	8	232	VLPFC	306.231875419617	1	n/a	n/a	n/a	n/a	n/a	1	n/a	n/a	n/a	n/a	n/a	2	6	0	0	1	0	0
98.3506916235685	2.51883681428433	punish_vlpfc	100.869528437853	19	4	3	10	0	0	0	0	250	250	250	750	2000	0	BLOCKED	0.25	1	6	1	hostile	At this moment	3	3	8	232	VLPFC	356.751703739166	0.553058676654182	n/a	n/a	n/a	n/a	1162.13407821229	0	890.265709525869	0.353265439236617	-5.15409165240945e-05	28.1137078421832	1145.71790930054	1	7	0	0	1	0	0
101.853676176071	2.5187193928957	punish_vlpfc	104.372395568967	20	4	3	10	0	0	0	0	250	250	250	750	2000	0	BLOCKED	0.25	1	4	-1	nervous	At this moment	4	3	8	232	VLPFC	439.858304262161	0.630461922596754	n/a	n/a	n/a	n/a	1183.04054054054	0	593.395364562415	0.628674003378617	-0.000144407382096878	26.4343772571311	1002.64181398924	1	8	0	0	1	0	0
105.373237971544	6.00480793642997	panas_none	111.378045907974	21	5	4	10	n/a	n/a	n/a	n/a	n/a	n/a	n/a	n/a	2000	0	BLOCKED	n/a	n/a	+	0	guilty	At this moment	2	3	8	232	NONE	n/a	0	853.704059172876	-0.325042695228055	0.000155134671458824	28.6864424056382	862.828963795256	0	722.115795441552	0.0703730457615584	-7.02563907557913e-05	43.3934036581358	724.447348193697	8	1	0	1	0	0	1
112.378921809316	6.00492324221133	panas_none	118.383845051527	22	5	4	10	n/a	n/a	n/a	n/a	n/a	n/a	n/a	n/a	2000	0	BLOCKED	n/a	n/a	+	0	excited	At this moment	3	3	8	232	NONE	n/a	0	976.5519487404	-0.429945765598705	0.00016101939289712	24.1214085841411	791.511860174782	0	753.941910020369	-0.275761732248703	0.000182561755926019	21.4873319061118	676.548039969254	4	2	0	1	0	0	1
119.384540060163	6.00495956182479	panas_none	125.389499621987	23	5	4	10	n/a	n/a	n/a	n/a	n/a	n/a	n/a	n/a	2000	0	BLOCKED	n/a	n/a	+	0	strong	At this moment	4	3	8	232	NONE	n/a	0.439450686641698	n/a	n/a	n/a	n/a	624.055679287305	0	706.829547533926	0.0843474976652468	-9.67929830235906e-05	16.764726995763	694.761721752498	25	3	0	1	0	0	1
126.373668164611	14.6453029969931	panas_none	141.018971161604	24	5	4	10	n/a	n/a	n/a	n/a	n/a	n/a	n/a	n/a	2000	0	BLOCKED	n/a	n/a	+	0	distressed	At this moment	3	3	8	232	NONE	n/a	0	1052.07549092902	-0.153367550131711	3.74622747319587e-05	22.015074247454	897.538077403246	0	538.089976220911	0.121074453935973	5.27977287304463e-05	25.4973113119608	686.089162182936	3	4	0	1	0	0	1
142.019683448434	2.51870352506637	reward_vlpfc	144.5383869735	25	2	5	10	0	0	0	0	250	250	250	750	2000	0	BLOCKED	0.75	1	7	1	attentive	At this moment	2	3	8	232	VLPFC	806.783368945122	0	8442.16439838298	-7.06991890166205	0.00161011156953723	42.1075528844169	782.695380774033	0.00230591852421214	336.713538909612	0.434147063647136	-3.15423105985112e-05	19.667598157668	677.538520801233	1	1	1	0	0	0	0
145.539347150326	2.51853744232656	reward_vlpfc	148.057884592652	26	2	5	10	0	0	0	0	250	250	250	750	2000	0	BLOCKED	0.75	1	10	1	proud	At this moment	4	3	8	232	VLPFC	657.976766824722	0.679151061173533	n/a	n/a	n/a	n/a	857.961089494163	0	518.767182332967	0.344192790684086	-9.84258002343917e-05	19.6935515298013	725.754035357417	1	2	1	0	0	0	0
149.042103912115	2.51870352494717	reward_vlpfc	151.560807437062	27	2	5	10	0	0	0	0	250	250	250	750	2000	0	BLOCKED	0.75	1	1	-1	irritable	At this moment	5	3	8	232	VLPFC	573.458992004395	0.726591760299625	n/a	n/a	n/a	n/a	815.803652968037	0	523.051763496918	0.197972360208381	1.92603545077748e-06	20.607471916353	692.791698693313	1	3	1	0	0	0	0
152.544918503046	2.51874619174004	reward_vlpfc	155.063664694786	28	2	5	10	0	0	0	0	250	250	250	750	2000	0	BLOCKED	0.75	-1	2	1	determined	At this moment	3	3	8	232	VLPFC	591.035199761391	0.616729088639201	n/a	n/a	n/a	n/a	824.364820846906	0	480.627435510455	0.324518804178463	2.31641253927296e-05	25.4631123643698	775.90853189854	1	4	1	0	0	0	0
156.064354061604	2.51879908430575	reward_vlpfc	158.583153145909	29	2	5	10	0	0	0	0	250	250	250	750	2000	0	BLOCKED	0.75	1	6	1	distressed	At this moment	4	3	8	232	VLPFC	574.375444293022	0.484394506866417	n/a	n/a	n/a	n/a	773.297820823245	0	724.062842904732	0.455934829957357	-0.000205042248290914	20.0165798266011	934.114527286703	1	5	1	0	0	0	0
159.567265974998	2.51875606501105	reward_vlpfc	162.08602204001	30	2	5	10	0	0	0	0	250	250	250	750	2000	0	BLOCKED	0.75	1	6	1	inspired	At this moment	1	3	8	232	VLPFC	606.733367800713	0	7421.60136565699	-6.4058709454142	0.00153710003793246	34.0921299213668	829.60049937578	0.373558800922367	n/a	n/a	n/a	n/a	725.332515337423	1	6	1	0	0	0	0
163.086809434414	2.51871375083923	reward_vlpfc	165.605523185253	31	2	5	10	0	0	0	0	250	250	250	750	2000	0	BLOCKED	0.75	-1	7	-1	upset	At this moment	2	3	8	232	VLPFC	624.569454193115	0	2731.06887928134	-1.58234324766514	0.00043585822806051	24.9438713364202	1352.98002496879	0.269792467332821	n/a	n/a	n/a	n/a	1170.33263157895	1	7	1	0	0	0	0
166.606312695384	2.51892990529538	reward_vlpfc	169.125242600679	32	2	5	10	0	0	0	0	250	250	250	750	2000	0	BLOCKED	0.75	-1	4	1	irritable	At this moment	2	3	8	232	VLPFC	658.900624036789	0.374531835205993	n/a	n/a	n/a	n/a	1061.97804391218	0	748.711551140814	0.732300092755375	-0.000185028320638949	23.4934130494534	1210.6571867794	1	8	1	0	0	0	0
170.109156553626	6.00497789788247	panas_none	176.114134451509	33	5	6	10	n/a	n/a	n/a	n/a	n/a	n/a	n/a	n/a	2000	0	BLOCKED	n/a	n/a	+	0	guilty	At this moment	1	3	8	232	NONE	n/a	1	n/a	n/a	n/a	n/a	n/a	0.159108378170638	397.79524948747	1.10298470108922	-0.000539323105763118	91.9549986565089	886.787934186472	22	1	0	1	0	1	1
177.09809812355	6.00500540208816	panas_none	183.103103525639	34	5	6	10	n/a	n/a	n/a	n/a	n/a	n/a	n/a	n/a	2000	0	BLOCKED	n/a	n/a	+	0	enthusiastic	At this moment	3	3	8	232	NONE	n/a	0	588.788456095887	0.177253963544607	-3.20475381350409e-06	18.6983513956956	946.325842696629	0	1034.69580524307	0.113256663011272	-0.000100941886694654	27.6779115391056	1043.61183704842	1	2	0	1	0	1	1
184.087260079265	6.00479524219037	panas_none	190.092055321455	35	5	6	10	n/a	n/a	n/a	n/a	n/a	n/a	n/a	n/a	2000	0	BLOCKED	n/a	n/a	+	0	ashamed	At this moment	1	3	8	232	NONE	n/a	0	-499.939486757788	1.22631121416722	-0.000270606596799374	17.4116289208688	867.239700374532	0	865.961234397966	-0.342149148326129	0.000186439681469407	28.5766484900653	736.398923904689	1	3	0	1	0	1	1
191.092885735154	7.62292837345601	panas_none	198.71581410861	36	5	6	10	n/a	n/a	n/a	n/a	n/a	n/a	n/a	n/a	2000	0	BLOCKED	n/a	n/a	+	0	hostile	At this moment	5	3	8	232	NONE	n/a	0	-24.6635197205041	0.576007318851044	-0.000121430773306053	22.0791095692519	642.098626716604	0.230591852421214	574.04945588638	0.355503177433263	-0.000233333860617755	31.104801589348	666.065934065934	1	4	0	1	0	1	1
199.699849362016	2.51879626333712	reward_rtpj	202.218645625353	37	1	7	10	750	250	250	250	0	0	0	0	2000	0	BLOCKED	0.75	1	6	1	guilty	At this moment	4	3	8	232	RTPJ	1041.49952590466	0	6290.10049730754	-5.30752901917789	0.00124393842017689	31.1012702245028	696.456928838951	0.298232129131437	n/a	n/a	n/a	n/a	640.477546549836	1	1	1	0	0	0	0
203.203010575652	2.51857623028755	reward_rtpj	205.72158680594	38	1	7	10	750	250	250	250	0	0	0	0	2000	0	BLOCKED	0.75	1	9	1	distressed	At this moment	3	3	8	232	RTPJ	440.844222187996	0.645443196004994	n/a	n/a	n/a	n/a	711.338028169014	0.144504227517294	664.010992480296	0.00886997451858249	5.58860610270912e-05	27.2202706688894	707.40790655885	2	2	1	0	0	0	0
206.705655557871	2.51873314487935	reward_rtpj	209.22438870275	39	1	7	10	750	250	250	250	0	0	0	0	2000	0	BLOCKED	0.75	-1	0	1	inspired	At this moment	1	3	8	232	RTPJ	474.428548455238	0.540574282147316	n/a	n/a	n/a	n/a	624.461956521739	0	469.327067103534	0.224557131167445	-3.53591986038706e-05	21.4098909292534	629.04381245196	1	3	1	0	0	0	0
210.208435945034	2.51880155253409	reward_rtpj	212.727237497568	40	1	7	10	750	250	250	250	0	0	0	0	2000	0	BLOCKED	0.75	-1	3	1	scared	At this moment	5	3	8	232	RTPJ	707.168991088867	0.686641697877653	n/a	n/a	n/a	n/a	695.099601593625	0	624.604793729022	0.389411766933945	-0.000172326189872533	26.60498156858	806.540353574174	1	4	1	0	0	0	0
213.728008671641	2.51880225777626	reward_rtpj	216.246810929418	41	1	7	10	750	250	250	250	0	0	0	0	2000	0	BLOCKED	0.75	1	10	1	active	At this moment	1	3	8	232	RTPJ	406.73167514801	0	6230.39040415023	-5.24386986476477	0.00120044818005588	37.2889391634015	573.761548064919	0	504.801375537457	0.114106387308337	-1.21601711278893e-05	16.8801546868825	590.923136049193	0	5	1	0	0	0	0
217.247609607577	2.51866226875782	reward_rtpj	219.766271876335	42	1	7	10	750	250	250	250	0	0	0	0	2000	0	BLOCKED	0.75	-1	10	-1	strong	At this moment	1	3	8	232	RTPJ	1007.91202628613	0	1606.69148878952	-0.904348047106293	0.000199757943350786	13.9316758095171	598.923845193508	0.413528055342045	n/a	n/a	n/a	n/a	573.555701179554	2	6	1	0	0	0	0
220.767106168866	2.51878286397459	reward_rtpj	223.285889032841	43	1	7	10	750	250	250	250	0	0	0	0	2000	0	BLOCKED	0.75	-1	10	-1	jittery	At this moment	5	3	8	232	RTPJ	324.277769327164	0	647.01392817389	-0.0998143158374861	7.79021524104212e-05	17.7783152371767	784.911360799001	0.478862413528055	n/a	n/a	n/a	n/a	654.025073746313	1	7	1	0	0	0	0
224.26992816484	2.51873420274259	reward_rtpj	226.788662367582	44	1	7	10	750	250	250	250	0	0	0	0	2000	0	BLOCKED	0.75	-1	3	1	afraid	At this moment	1	3	8	232	RTPJ	540.230103850365	0	3140.32382699011	-2.27333261956031	0.000492988556777635	20.9308785051751	566.675405742821	0.512682551883167	n/a	n/a	n/a	n/a	724.388012618297	1	8	1	0	0	0	0
227.789495954752	6.00493628907205	panas_none	233.794432243824	45	5	8	10	n/a	n/a	n/a	n/a	n/a	n/a	n/a	n/a	2000	0	BLOCKED	n/a	n/a	+	0	scared	At this moment	3	3	8	232	NONE	n/a	0.373283395755306	n/a	n/a	n/a	n/a	758.430278884462	0	317.117688588759	0.496797993747412	-0.000257250396503167	36.6651472639871	518.94004611837	2	1	0	1	0	1	0
234.778477370501	6.00496449840071	panas_none	240.783441868901	46	5	8	10	n/a	n/a	n/a	n/a	n/a	n/a	n/a	n/a	2000	0	BLOCKED	n/a	n/a	+	0	attentive	At this moment	4	3	8	232	NONE	n/a	0.415730337078652	n/a	n/a	n/a	n/a	884.925213675214	0	540.755376966554	0.297980797080228	-1.43742605444496e-05	20.0967133554119	780.847040737894	5	2	0	1	0	1	0
241.784233494759	6.00478254795075	panas_none	247.789016042709	47	5	8	10	n/a	n/a	n/a	n/a	n/a	n/a	n/a	n/a	2000	0	BLOCKED	n/a	n/a	+	0	hostile	At this moment	1	3	8	232	NONE	n/a	0.617977528089888	n/a	n/a	n/a	n/a	1897.64379084967	0	2424.53093189162	-0.0139968869497767	-4.53225927659713e-05	23.1732793657482	2372.25057647963	2	3	0	1	0	1	0
248.790342588902	10.2578545495272	panas_none	259.048197138429	48	5	8	10	n/a	n/a	n/a	n/a	n/a	n/a	n/a	n/a	2000	0	BLOCKED	n/a	n/a	+	0	jittery	At this moment	2	3	8	232	NONE	n/a	0.374531835205993	n/a	n/a	n/a	n/a	1809.43512974052	0	1395.89607973919	0.278577821603527	-3.50048606938723e-05	33.8356575992919	1602.26902382782	2	4	0	1	0	1	0
260.049004279375	2.51879097414019	reward_rtpj	262.567795253515	49	1	9	10	750	250	250	250	0	0	0	0	2000	0	BLOCKED	0.75	1	7	1	scared	At this moment	5	3	8	232	RTPJ	991.448325991631	0.456928838951311	n/a	n/a	n/a	n/a	901.036781609195	0	465.883025834865	0.840241411486767	-0.000235288043503224	17.9910752412177	976.69715603382	1	1	1	0	0	0	0
263.568708884835	2.51861254990098	reward_rtpj	266.087321434736	50	1	9	10	750	250	250	250	0	0	0	0	2000	0	BLOCKED	0.75	1	10	1	attentive	At this moment	2	3	8	232	RTPJ	658.012028574944	0	10041.2614558325	-8.58136037149712	0.0019697920968645	27.8386821259247	812.352059925094	0	961.498751493616	0.181535412802043	-6.66721670832763e-07	24.7474365695633	1114.84934665642	0	2	1	0	0	0	0
267.088068277955	2.51882764637469	reward_rtpj	269.60689592433	51	1	9	10	750	250	250	250	0	0	0	0	2000	0	BLOCKED	0.75	-1	2	1	hostile	At this moment	4	3	8	232	RTPJ	557.170190095901	0.607990012484395	n/a	n/a	n/a	n/a	838.054140127389	0	536.911864644584	0.64145617724996	-0.000200478686718715	21.8461943220584	908.652574942352	1	3	1	0	0	0	0
270.607716464758	2.51865980052946	reward_rtpj	273.126376265287	52	1	9	10	750	250	250	250	0	0	0	0	2000	0	BLOCKED	0.75	-1	1	1	interested	At this moment	1	3	8	232	RTPJ	674.558241009712	0	1241.78961693365	-0.402351990685439	7.63932128116135e-05	18.8171494763323	737.990012484394	0.346656418139892	n/a	n/a	n/a	n/a	832.245882352941	1	4	1	0	0	0	0
274.127267681718	2.51868765723708	reward_rtpj	276.645955338955	53	1	9	10	750	250	250	250	0	0	0	0	2000	0	BLOCKED	0.75	1	0	-1	afraid	At this moment	5	3	8	232	RTPJ	557.229429721832	0.503121098626717	n/a	n/a	n/a	n/a	748.407035175879	0.739431206764028	n/a	n/a	n/a	n/a	760.530973451327	2	5	1	0	0	0	0
277.646756132722	2.51878286385534	reward_rtpj	280.165538996577	54	1	9	10	750	250	250	250	0	0	0	0	2000	0	BLOCKED	0.75	1	9	1	strong	At this moment	4	3	8	232	RTPJ	372.948825359344	0.551810237203496	n/a	n/a	n/a	n/a	722.403899721449	0	545.889810420433	0.318974144401561	-0.00010294371025198	17.0630605926749	727.867794004612	1	6	1	0	0	0	0
281.16623330009	2.51873420274256	reward_rtpj	283.684967502832	55	1	9	10	750	250	250	250	0	0	0	0	2000	0	BLOCKED	0.75	-1	0	1	guilty	At this moment	2	3	8	232	RTPJ	807.062994360924	0.877652933832709	n/a	n/a	n/a	n/a	830.724489795918	0	582.922961112534	0.350461674326136	-0.00012806535748118	23.3321801604861	770.292851652575	1	7	1	0	0	0	0
284.685769707084	2.51877827990057	reward_rtpj	287.204547986984	56	1	9	10	750	250	250	250	0	0	0	0	2000	0	BLOCKED	0.75	-1	9	-1	interested	At this moment	1	3	8	232	RTPJ	874.2739610672	1	n/a	n/a	n/a	n/a	n/a	1	n/a	n/a	n/a	n/a	n/a	1	8	1	0	0	0	0
288.205320218921	6.00493664157392	panas_none	294.210256860495	57	5	10	10	n/a	n/a	n/a	n/a	n/a	n/a	n/a	n/a	2000	0	BLOCKED	n/a	n/a	+	0	active	At this moment	4	3	8	232	NONE	n/a	0	-326.305653366428	0.671698370527405	-9.30137365049954e-05	13.9449448026554	668.740324594257	0	755.135355674732	-0.342054046441032	0.000116171063060356	48.7791160749619	566.309761721752	1	1	0	1	0	1	0
295.194306571126	6.00489679586889	panas_none	301.199203366995	58	5	10	10	n/a	n/a	n/a	n/a	n/a	n/a	n/a	n/a	2000	0	BLOCKED	n/a	n/a	+	0	irritable	At this moment	3	3	8	232	NONE	n/a	0	32.1963860988895	0.387152014462285	-7.00035403062871e-06	16.7364640187227	813.625468164794	0.229823212913144	1020.08088632829	0.352269811328701	-0.000330683837358205	21.2455523985501	1020.73852295409	2	2	0	1	0	1	0
302.200022497058	6.00490137994291	panas_none	308.204923877001	59	5	10	10	n/a	n/a	n/a	n/a	n/a	n/a	n/a	n/a	2000	0	BLOCKED	n/a	n/a	+	0	excited	At this moment	3	3	8	232	NONE	n/a	0	425.708616726911	0.0168741344522033	2.90847702111587e-06	14.6330496722191	473.734082397004	0.19369715603382	492.491514214575	0.168705174968526	-0.00011597122365987	11.1951748097968	531.581506196378	2	3	0	1	0	1	0
309.205748648763	13.927972634077	panas_none	323.13372128284	60	5	10	10	n/a	n/a	n/a	n/a	n/a	n/a	n/a	n/a	2000	0	BLOCKED	n/a	n/a	+	0	interested	At this moment	3	3	8	232	NONE	n/a	0	737.965642656967	0.246015676386139	-6.28116554342898e-05	15.0078617520522	973.990012484394	0	805.674525118172	0.0933434820074429	2.36915583783186e-05	17.1268431314236	904.922367409685	5	4	0	1	0	1	0
324.134519608378	2.51886713945868	punish_rtpj	326.653386747837	61	3	11	10	750	250	250	250	0	0	0	0	2000	0	BLOCKED	0.25	1	0	-1	nervous	At this moment	5	3	8	232	RTPJ	957.065674304962	0	4559.5393914312	-3.32809460085917	0.00081211288600225	18.4368693986005	1195.19225967541	0.7847809377402	n/a	n/a	n/a	n/a	841.442857142857	1	1	0	0	1	0	0
327.654231971383	2.518549431324	punish_rtpj	330.172781402707	62	3	11	10	750	250	250	250	0	0	0	0	2000	0	BLOCKED	0.25	1	10	1	proud	At this moment	1	3	8	232	RTPJ	590.761921286583	0.474406991260924	n/a	n/a	n/a	n/a	1173.76959619953	0.452728670253651	n/a	n/a	n/a	n/a	1190.38764044944	2	2	0	0	1	0	0
331.173637557507	2.51868836236002	punish_rtpj	333.692325919867	63	3	11	10	750	250	250	250	0	0	0	0	2000	0	BLOCKED	0.25	1	1	-1	active	At this moment	1	3	8	232	RTPJ	923.586780428886	0.841448189762796	n/a	n/a	n/a	n/a	908.763779527559	0	739.362066782099	0.590078110739904	-0.000270688319431748	20.9858922309262	1009.32129131437	1	3	0	0	1	0	0
334.67646237433	2.51871798229217	punish_rtpj	337.195180356622	64	3	11	10	750	250	250	250	0	0	0	0	2000	0	BLOCKED	0.25	-1	9	-1	inspired	At this moment	2	3	8	232	RTPJ	406.496832132339	0.870162297128589	n/a	n/a	n/a	n/a	908.817307692308	0	762.558077516572	0.388759240329633	-0.000147113129132897	14.3533292197532	965.902382782475	1	4	0	0	1	0	0
338.179252987385	2.51876205956933	punish_rtpj	340.698015046954	65	3	11	10	750	250	250	250	0	0	0	0	2000	0	BLOCKED	0.25	-1	7	-1	irritable	At this moment	1	3	8	232	RTPJ	440.033907651901	0.845193508114856	n/a	n/a	n/a	n/a	699.379032258065	0	662.351231874597	0.0201009999311635	9.73014503702755e-06	11.0884684933332	687.573405073021	1	5	0	0	1	0	0
341.68215538013	2.51891439020636	punish_rtpj	344.201069770336	66	3	11	10	750	250	250	250	0	0	0	0	2000	0	BLOCKED	0.25	-1	3	1	nervous	At this moment	1	3	8	232	RTPJ	506.756852149963	1	n/a	n/a	n/a	n/a	n/a	1	n/a	n/a	n/a	n/a	n/a	2	6	0	0	1	0	0
345.201711181164	2.51872362411024	punish_rtpj	347.720434805274	67	3	11	10	750	250	250	250	0	0	0	0	2000	0	BLOCKED	0.25	1	3	-1	afraid	At this moment	3	3	8	232	RTPJ	357.811671257019	1	n/a	n/a	n/a	n/a	n/a	1	n/a	n/a	n/a	n/a	n/a	1	7	0	0	1	0	0
348.704474290013	2.51880684185028	punish_rtpj	351.223281131864	68	3	11	10	750	250	250	250	0	0	0	0	2000	0	BLOCKED	0.25	1	3	-1	distressed	At this moment	2	3	8	232	RTPJ	356.833158493042	0.782771535580524	n/a	n/a	n/a	n/a	599.086206896552	0	570.124854895937	0.010984652148005	-1.31802445179808e-05	10.1739100507392	568.446579554189	1	8	0	0	1	0	0
352.224143986344	6.00487352323529	panas_none	358.22901750958	69	5	12	10	n/a	n/a	n/a	n/a	n/a	n/a	n/a	n/a	2000	0	BLOCKED	n/a	n/a	+	0	ashamed	At this moment	1	3	8	232	NONE	n/a	0	-615.303533180044	0.991705578543526	-0.000196064744062966	10.4548848549999	592.307116104869	0	532.130107848783	0.112446487817108	-9.82194619386285e-05	26.3015225722979	543.823212913144	1	1	0	1	0	0	0
359.229863438487	6.00492606306079	panas_none	365.234789501548	70	5	12	10	n/a	n/a	n/a	n/a	n/a	n/a	n/a	n/a	2000	0	BLOCKED	n/a	n/a	+	0	proud	At this moment	3	3	8	232	NONE	n/a	0	972.0443668996	-0.317643440701503	7.03482504100743e-05	10.2035916733494	618.670411985019	0.229823212913144	1061.74506261098	0.0527225769592806	-0.000193020929149856	16.066717799415	935.549900199601	2	2	0	1	0	0	0
366.235729226708	6.00473564982411	panas_none	372.240464876533	71	5	12	10	n/a	n/a	n/a	n/a	n/a	n/a	n/a	n/a	2000	0	BLOCKED	n/a	n/a	+	0	alert	At this moment	4	3	8	232	NONE	n/a	0	819.564719104124	-0.336418110565474	9.76854891360719e-05	12.6509067120798	548.975031210986	0.257494235203689	n/a	n/a	n/a	n/a	565.776397515528	2	3	0	1	0	0	0
373.224702532053	10.1247080329657	panas_none	383.349410565019	72	5	12	10	n/a	n/a	n/a	n/a	n/a	n/a	n/a	n/a	2000	0	BLOCKED	n/a	n/a	+	0	active	At this moment	2	3	8	232	NONE	n/a	0	1372.87187203159	-0.0536216582044141	6.15497314447964e-05	23.5801648208732	1534.47066167291	0.0276710222905457	1046.98910112911	0.342919379608197	-9.68890620931991e-05	20.6890687809391	1257.75731225296	3	4	0	1	0	0	0
384.333442644715	2.51881671512126	reward_vlpfc	386.852259359837	73	2	13	10	0	0	0	0	250	250	250	750	2000	0	BLOCKED	0.75	1	8	1	determined	At this moment	5	3	8	232	VLPFC	774.973060011864	0.766541822721598	n/a	n/a	n/a	n/a	1172.55614973262	0.302843966179862	n/a	n/a	n/a	n/a	950.711135611907	2	1	1	0	0	0	0
387.836428255081	2.51894365739827	reward_vlpfc	390.355371912479	74	2	13	10	0	0	0	0	250	250	250	750	2000	0	BLOCKED	0.75	1	7	1	jittery	At this moment	4	3	8	232	VLPFC	356.53484416008	1	n/a	n/a	n/a	n/a	n/a	1	n/a	n/a	n/a	n/a	n/a	1	2	1	0	0	0	0
391.339256950855	2.51872115588191	reward_vlpfc	393.857978106737	75	2	13	10	0	0	0	0	250	250	250	750	2000	0	BLOCKED	0.75	1	0	-1	ashamed	At this moment	4	3	8	232	VLPFC	690.292023420334	1	n/a	n/a	n/a	n/a	n/a	1	n/a	n/a	n/a	n/a	n/a	2	3	1	0	0	0	0
394.858666768193	2.51914394402502	reward_vlpfc	397.377810712218	76	2	13	10	0	0	0	0	250	250	250	750	2000	0	BLOCKED	0.75	-1	0	1	nervous	At this moment	5	3	8	232	VLPFC	557.158553719521	0.375780274656679	n/a	n/a	n/a	n/a	1472.274	0.259031514219831	n/a	n/a	n/a	n/a	1619.04771784232	2	4	1	0	0	0	0
398.361629458547	2.5186774312258	reward_vlpfc	400.880306889772	77	2	13	10	0	0	0	0	250	250	250	750	2000	0	BLOCKED	0.75	-1	3	1	interested	At this moment	2	3	8	232	VLPFC	690.160849809647	0	8878.10302481877	-7.08228483742909	0.00161427620220346	34.0188131332778	1210.02122347066	0.348193697156034	n/a	n/a	n/a	n/a	1390.29716981132	1	5	1	0	0	0	0
401.881165512919	2.51871057736872	reward_vlpfc	404.399876090288	78	2	13	10	0	0	0	0	250	250	250	750	2000	0	BLOCKED	0.75	1	10	1	strong	At this moment	1	3	8	232	VLPFC	706.915106654167	0	5870.77230628346	-4.41419613604572	0.00099241037904062	17.1251002519337	1029.07116104869	0.491160645657187	n/a	n/a	n/a	n/a	1148.4667673716	1	6	1	0	0	0	0
405.383936732054	2.53540735757349	reward_vlpfc	407.919344089627	79	2	13	10	0	0	0	0	250	250	250	750	2000	0	BLOCKED	0.75	1	2	-1	inspired	At this moment	3	3	8	232	VLPFC	473.192977547646	0.0873907615480649	3428.64383469548	-2.00514224834248	0.000405261279168713	20.5069023982513	1034.14363885089	0.289777094542659	n/a	n/a	n/a	n/a	1225.03354978355	2	7	1	0	0	0	0
408.920480222344	2.51853603196145	reward_vlpfc	411.439016254306	80	2	13	10	0	0	0	0	250	250	250	750	2000	0	BLOCKED	0.75	-1	1	1	guilty	At this moment	5	3	8	232	VLPFC	490.657405614853	0	5674.56617132446	-4.39987716206237	0.00098325866432854	9.77650764203223	823.631710362047	0.897002305918524	n/a	n/a	n/a	n/a	692.888059701493	1	8	1	0	0	0	0
412.4231241467	6.00475081241126	panas_none	418.427874959111	81	5	14	10	n/a	n/a	n/a	n/a	n/a	n/a	n/a	n/a	2000	0	BLOCKED	n/a	n/a	+	0	jittery	At this moment	3	3	8	232	NONE	n/a	0.503121098626717	n/a	n/a	n/a	n/a	807.1608040201	0	523.970463510707	0.27491500039201	-0.000136316890220405	48.5655892198582	642.234435049962	2	1	0	1	0	1	1
419.4289000175	6.00489185929297	panas_none	425.433791876793	82	5	14	10	n/a	n/a	n/a	n/a	n/a	n/a	n/a	n/a	2000	0	BLOCKED	n/a	n/a	+	0	nervous	At this moment	1	3	8	232	NONE	n/a	0	2998.93476407506	-1.51993639952106	0.000294493688859251	42.2353608664672	1121.97503121099	0.154496541122214	872.534938279939	0.0954211752350842	8.38881605620905e-05	13.2417962429624	999.504545454545	4	2	0	1	0	1	1
426.434407899261	6.00495180428027	panas_none	432.439359703541	83	5	14	10	n/a	n/a	n/a	n/a	n/a	n/a	n/a	n/a	2000	0	BLOCKED	n/a	n/a	+	0	hostile	At this moment	1	3	8	232	NONE	n/a	0.726591760299625	n/a	n/a	n/a	n/a	1484.31050228311	0	1451.02576709996	0.412863915838296	-0.000294698578049237	33.8858724854404	1551.14757878555	2	3	0	1	0	1	1
433.440175659895	10.1582521607876	panas_none	443.598427820683	84	5	14	10	n/a	n/a	n/a	n/a	n/a	n/a	n/a	n/a	2000	0	BLOCKED	n/a	n/a	+	0	active	At this moment	3	3	8	232	NONE	n/a	0	2553.83984667172	-0.850134427247798	0.000164697398263852	33.3543838726848	1503.86516853933	0	1562.44522369226	0.147155291429808	-0.000128649042937812	30.9288239968887	1577.04381245196	1	4	0	1	0	1	1
444.599289969921	2.51865909516812	punish_vlpfc	447.117949065089	85	4	15	10	0	0	0	0	250	250	250	750	2000	0	BLOCKED	0.25	1	0	-1	irritable	At this moment	5	3	8	232	VLPFC	1023.6934119463	0	4811.46785292434	-3.23184080053291	0.000704509388539038	23.0387034151843	1168.58052434457	0.487317448116833	n/a	n/a	n/a	n/a	820.986506746627	2	1	0	0	1	0	0
448.102115491986	2.51874724972248	punish_vlpfc	450.620862741709	86	4	15	10	0	0	0	0	250	250	250	750	2000	0	BLOCKED	0.25	1	4	-1	guilty	At this moment	4	3	8	232	VLPFC	389.613164782524	0.913857677902622	n/a	n/a	n/a	n/a	1530.30434782609	0.4619523443505	n/a	n/a	n/a	n/a	1518.67857142857	2	2	0	0	1	0	0
451.621557045102	2.51890945351124	punish_vlpfc	454.140466498613	87	4	15	10	0	0	0	0	250	250	250	750	2000	0	BLOCKED	0.25	-1	8	-1	ashamed	At this moment	4	3	8	232	VLPFC	540.219172716141	1	n/a	n/a	n/a	n/a	n/a	1	n/a	n/a	n/a	n/a	n/a	2	3	0	0	1	0	0
455.141210873723	2.51867319989202	punish_vlpfc	457.659884073615	88	4	15	10	0	0	0	0	250	250	250	750	2000	0	BLOCKED	0.25	1	1	-1	alert	At this moment	5	3	8	232	VLPFC	373.133949279785	1	n/a	n/a	n/a	n/a	n/a	1	n/a	n/a	n/a	n/a	n/a	1	4	0	0	1	0	0
458.64403710103	2.51869753050806	punish_vlpfc	461.162734631538	89	4	15	10	0	0	0	0	250	250	250	750	2000	0	BLOCKED	0.25	-1	1	1	inspired	At this moment	4	3	8	232	VLPFC	556.816162228584	0.800249687890137	n/a	n/a	n/a	n/a	2434.66875	1	n/a	n/a	n/a	n/a	n/a	2	5	0	0	1	0	0
462.148699406505	2.51683959007261	punish_vlpfc	464.665538996577	90	4	15	10	0	0	0	0	250	250	250	750	2000	0	BLOCKED	0.25	1	7	1	active	At this moment	3	3	8	232	VLPFC	1071.54040157795	1	n/a	n/a	n/a	n/a	n/a	1	n/a	n/a	n/a	n/a	n/a	1	6	0	0	1	0	0
465.666930071831	2.51816578376292	punish_vlpfc	468.185095855594	91	4	15	10	0	0	0	0	250	250	250	750	2000	0	BLOCKED	0.25	1	3	-1	distressed	At this moment	4	3	8	232	VLPFC	739.484600543976	0.401997503121099	n/a	n/a	n/a	n/a	2723.57828810021	0	2711.44490964635	-0.135527675769421	6.79609033754091e-05	28.4906902173274	2653.96464258263	2	7	0	0	1	0	0
469.185940373898	2.51869788312911	punish_vlpfc	471.704638257027	92	4	15	10	0	0	0	0	250	250	250	750	2000	0	BLOCKED	0.25	1	2	-1	interested	At this moment	5	3	8	232	VLPFC	723.411600232124	0.918851435705368	n/a	n/a	n/a	n/a	2282.96923076923	0.787086856264412	n/a	n/a	n/a	n/a	2274.02888086643	19	8	0	0	1	0	0
472.705336791873	6.00515561699865	panas_none	478.710492408872	93	5	16	10	n/a	n/a	n/a	n/a	n/a	n/a	n/a	n/a	2000	0	BLOCKED	n/a	n/a	+	0	ashamed	At this moment	1	3	8	232	NONE	n/a	0.815230961298377	n/a	n/a	n/a	n/a	1476.97972972973	0.801691006917756	n/a	n/a	n/a	n/a	1569.68604651163	19	1	0	1	0	0	1
479.711170491934	6.00486506032939	panas_none	485.716035552263	94	5	16	10	n/a	n/a	n/a	n/a	n/a	n/a	n/a	n/a	2000	0	BLOCKED	n/a	n/a	+	0	active	At this moment	4	3	8	232	NONE	n/a	1	n/a	n/a	n/a	n/a	n/a	0.987701767870869	n/a	n/a	n/a	n/a	1434.5	46	2	0	1	0	0	1
486.716779574633	6.0049031431675	panas_none	492.7216827178	95	5	16	10	n/a	n/a	n/a	n/a	n/a	n/a	n/a	n/a	2000	0	BLOCKED	n/a	n/a	+	0	enthusiastic	At this moment	3	3	8	232	NONE	n/a	0.807740324594257	n/a	n/a	n/a	n/a	1356.53896103896	0.804765564950038	n/a	n/a	n/a	n/a	1250.55511811024	21	3	0	1	0	0	1
493.722679214239	9.04059224176405	panas_none	502.763271456003	96	5	16	10	n/a	n/a	n/a	n/a	n/a	n/a	n/a	n/a	2000	0	BLOCKED	n/a	n/a	+	0	attentive	At this moment	5	3	8	232	NONE	n/a	0.759051186017478	n/a	n/a	n/a	n/a	1276.9067357513	0.756341275941583	n/a	n/a	n/a	n/a	1105.5047318612	53	4	0	1	0	0	1
