onset	duration	trial_type	offset	trial	block	blockCntr	frequency	amplitude_1	amplitude_2	amplitude_3	amplitude_4	amplitude_5	amplitude_6	amplitude_7	amplitude_8	transition	sham	mode	rewardFraction	guess	outcome	correct	word	when	answer	runNr	scanNr	subjectNr	target	reactionTime	outcomeEyeClosed	outcomeParms_1	outcomeParms_2	outcomeParms_3	outcomeSigma	outcomePupilArea	guessEyeClosed	guessParms_1	guessParms_2	guessParms_3	guessSigma	guessPupilArea	nrBlinks	trialInBlock	isReward	isPanas	isPunish	beforePanasReward	beforePanasVLPFC
20.4116260029078	2.51557228374481	punish_rtpj	22.9271982866526	1	3	1	10	750	250	250	250	0	0	0	0	2000	0	BLOCKED	0.25	1	0	-1	attentive	At this moment	4	2	7	232	RTPJ	770.797013759613	0.612983770287141	n/a	n/a	n/a	n/a	1592.15806451613	0	1118.19164754913	-0.282365565167942	0.000260696047517306	19.9133883632393	1102.9139123751	2	1	0	0	1	0	0
23.9279211519957	2.51880825233459	punish_rtpj	26.4467294043303	2	3	1	10	750	250	250	250	0	0	0	0	2000	0	BLOCKED	0.25	1	2	-1	strong	At this moment	1	2	7	232	RTPJ	357.127946376801	0	5770.14521370248	-3.92383300996415	0.000891147042335465	33.027237259211	1506.24594257179	0.230591852421214	1098.88668706492	0.536513336369225	-0.000160237916395953	17.8318974885002	1417.29270729271	1	2	0	0	1	0	0
27.4474748373032	2.51881354165077	punish_rtpj	29.9662883789539	3	3	1	10	750	250	250	250	0	0	0	0	2000	0	BLOCKED	0.25	-1	8	-1	proud	At this moment	2	2	7	232	RTPJ	540.116208434105	0.886392009987516	n/a	n/a	n/a	n/a	1577.95604395604	0	938.938190994825	0.539044166460312	-9.24579335855424e-05	21.28675957153	1317.09377401998	1	3	0	0	1	0	0
30.9670828255415	2.51874901270867	punish_rtpj	33.4858318382502	4	3	1	10	750	250	250	250	0	0	0	0	2000	0	BLOCKED	0.25	1	4	-1	alert	At this moment	4	2	7	232	RTPJ	339.89413022995	0.374531835205993	n/a	n/a	n/a	n/a	1335.33932135729	0	1172.52437002694	0.721802176131382	-0.000327333849320533	16.7252146414727	1503.05534204458	1	4	0	0	1	0	0
34.4866037174463	2.51871762967109	punish_rtpj	37.0053213471174	5	3	1	10	750	250	250	250	0	0	0	0	2000	0	BLOCKED	0.25	1	8	1	inspired	At this moment	2	2	7	232	RTPJ	473.282189846039	0	15352.6512479074	-12.7586173176385	0.00279064272931231	35.6604910428085	1003.00624219725	0	909.008718486717	0.58292151788008	-0.000138898306267585	20.007735765007	1285.1045349731	0	5	0	0	1	0	0
37.9893848098516	2.51874478125573	punish_rtpj	40.5081295911074	6	3	1	10	750	250	250	250	0	0	0	0	2000	0	BLOCKED	0.25	1	6	1	guilty	At this moment	1	2	7	232	RTPJ	490.476512789726	0.799001248439451	n/a	n/a	n/a	n/a	1224.49068322981	0	750.465709981544	0.508996585933477	-7.70910838070981e-05	20.4199599859097	1115.81014604151	1	6	0	0	1	0	0
41.5089705833197	2.518751480937	punish_rtpj	44.0277220642567	7	3	1	10	750	250	250	250	0	0	0	0	2000	0	BLOCKED	0.25	1	2	-1	determined	At this moment	1	2	7	232	RTPJ	456.402401089668	0	2437.01344654881	-1.13912432661783	0.000261552643163814	20.5467464056161	1212.09488139825	0.271329746348962	n/a	n/a	n/a	n/a	1143.1276371308	1	7	0	0	1	0	0
45.0118747390509	2.5186806050539	punish_rtpj	47.5305553441048	8	3	1	10	750	250	250	250	0	0	0	0	2000	0	BLOCKED	0.25	1	3	-1	afraid	At this moment	4	2	7	232	RTPJ	373.129365444183	0.50561797752809	n/a	n/a	n/a	n/a	1245.04545454545	0.232897770945427	871.255119540781	0.278991296692489	-4.12145019529799e-05	15.2159502801875	1078.70541082164	2	8	0	0	1	0	0
48.5182877893448	6.01811077535152	panas_none	54.5363985646963	9	5	2	10	n/a	n/a	n/a	n/a	n/a	n/a	n/a	n/a	2000	0	BLOCKED	n/a	n/a	+	0	distressed	At this moment	3	2	7	232	NONE	n/a	0	5972.2071627802	-5.08207517985559	0.00131289859021179	30.0252867050727	1158.34581772784	0.229823212913144	871.638126819392	0.65616599691562	-0.000172463796684352	116.422637455359	1276.13173652695	3	1	0	1	0	0	0
55.5370681849718	6.02147298097611	panas_none	61.5585411659479	10	5	2	10	n/a	n/a	n/a	n/a	n/a	n/a	n/a	n/a	2000	0	BLOCKED	n/a	n/a	+	0	proud	At this moment	2	2	7	232	NONE	n/a	0	2154.18579245502	-0.866605198085885	0.00030222533208791	17.3992881985884	1682.86641697878	0.229823212913144	1458.69580719684	0.0686714242300648	2.33739757793287e-05	18.2033090051273	1530.12974051896	4	2	0	1	0	0	0
62.542958656311	6.02138764774799	panas_none	68.564346304059	11	5	2	10	n/a	n/a	n/a	n/a	n/a	n/a	n/a	n/a	2000	0	BLOCKED	n/a	n/a	+	0	guilty	At this moment	3	2	7	232	NONE	n/a	0.373283395755306	n/a	n/a	n/a	n/a	1545.30478087649	0	1584.54979161717	-0.0712646838954954	9.9637718450307e-05	61.4421233272799	1611.36971560338	3	3	0	1	0	0	0
69.5650748113394	13.5944912014008	panas_none	83.1595660127401	12	5	2	10	n/a	n/a	n/a	n/a	n/a	n/a	n/a	n/a	2000	0	BLOCKED	n/a	n/a	+	0	strong	At this moment	4	2	7	232	NONE	n/a	0	921.750271719626	0.607115830855901	-0.00010541512595756	16.9401538063578	1726.38451935081	0.194465795541891	1416.88404764982	0.00288242642338973	7.79129016674734e-05	17.8864772719168	1500.82442748092	4	4	0	1	0	0	0
84.1602864098549	2.51876734876633	reward_rtpj	86.6790537586212	13	1	3	10	750	250	250	250	0	0	0	0	2000	0	BLOCKED	0.75	1	7	1	active	At this moment	2	2	7	232	RTPJ	1307.82429504395	0.399500624219725	n/a	n/a	n/a	n/a	1376.50311850312	0	663.433397840048	0.890655887001937	-0.000217441470686649	15.3901971693905	1232.94004611837	1	1	1	0	0	0	0
87.6798947508335	2.5187077564001	reward_rtpj	90.1986025072336	14	1	3	10	750	250	250	250	0	0	0	0	2000	0	BLOCKED	0.75	-1	3	1	afraid	At this moment	2	2	7	232	RTPJ	606.590557694435	0	17326.0750558862	-14.7187273449675	0.00329439448934106	33.541831145354	1115.67790262172	0	1088.2024565055	0.725741915506852	-0.000255581973585653	14.2653106780825	1484.19292851653	0	2	1	0	0	0	0
91.1994202266931	2.51873032402993	reward_rtpj	93.7181505507231	15	1	3	10	750	250	250	250	0	0	0	0	2000	0	BLOCKED	0.75	1	7	1	inspired	At this moment	5	2	7	232	RTPJ	424.137568712234	0	11069.7172276957	-9.11491710588876	0.00207143016656552	20.7494893368948	1166.21598002497	0.272098385857033	n/a	n/a	n/a	n/a	1347.09714889124	1	3	1	0	0	0	0
94.718950991869	2.51925537109375	reward_rtpj	97.2382063629627	16	1	3	10	750	250	250	250	0	0	0	0	2000	0	BLOCKED	0.75	1	0	-1	guilty	At this moment	4	2	7	232	RTPJ	1041.50340485573	0	658.202067360752	0.459716262095877	-8.18380968634904e-05	10.7977922210498	1258.3620474407	0.299000768639508	n/a	n/a	n/a	n/a	1144.24013157895	1	4	1	0	0	0	0
98.2384891619682	2.51877863252163	reward_rtpj	100.75726779449	17	1	3	10	750	250	250	250	0	0	0	0	2000	0	BLOCKED	0.75	1	6	1	strong	At this moment	3	2	7	232	RTPJ	573.530220746994	0.374531835205993	n/a	n/a	n/a	n/a	748.073852295409	0	700.953884477548	0.773693062235145	-0.000281593682203356	14.6835274335231	1115.23981552652	1	5	1	0	0	0	0
101.741318562865	2.51873173451423	reward_rtpj	104.260050297379	18	1	3	10	750	250	250	250	0	0	0	0	2000	0	BLOCKED	0.75	-1	2	1	nervous	At this moment	4	2	7	232	RTPJ	957.059679746628	0	8959.874947299	-7.22932789064306	0.00166644381195212	34.2004744941988	1215.15730337079	0.260568793235972	n/a	n/a	n/a	n/a	1183.38045738046	1	6	1	0	0	0	0
105.244080613971	2.51873913943768	reward_rtpj	107.762819753408	19	1	3	10	750	250	250	250	0	0	0	0	2000	0	BLOCKED	0.75	-1	8	-1	attentive	At this moment	4	2	7	232	RTPJ	891.831127285957	0	1818.73710504924	-0.733576381001631	0.000209132983062802	17.6170416742137	1211.80024968789	0.289008455034589	n/a	n/a	n/a	n/a	1140.54918918919	1	7	1	0	0	0	0
108.747545078635	2.5182165606022	reward_rtpj	111.265761639237	20	1	3	10	750	250	250	250	0	0	0	0	2000	0	BLOCKED	0.75	1	6	1	distressed	At this moment	5	2	7	232	RTPJ	490.104854226112	0	11893.9769128588	-9.99315757593255	0.00226786046477838	25.5120142340359	1015.70411985019	0.230591852421214	877.886260179735	0.310288128777947	-5.95580539150669e-05	16.3951170001326	1080.80719280719	1	8	1	0	0	0	0
112.266702069402	6.02165175807475	panas_none	118.288353827476	21	5	4	10	n/a	n/a	n/a	n/a	n/a	n/a	n/a	n/a	2000	0	BLOCKED	n/a	n/a	+	0	guilty	At this moment	1	2	7	232	NONE	n/a	0	657.198627279148	-0.123321214539656	0.000154525172750352	16.135694031327	1087.70661672909	0	531.003791376926	0.639034915081169	-0.000285260415427572	90.7878946513066	832.421214450423	2	1	0	1	0	1	0
119.305825307846	6.02136684322357	panas_none	125.32719215107	22	5	4	10	n/a	n/a	n/a	n/a	n/a	n/a	n/a	n/a	2000	0	BLOCKED	n/a	n/a	+	0	active	At this moment	4	2	7	232	NONE	n/a	0	10750.897416608	-8.82045888798828	0.00196966126092711	24.1242090204932	1011.44319600499	0.63489623366641	n/a	n/a	n/a	n/a	1176.00842105263	4	2	0	1	0	1	0
126.327941110134	6.0216302484274	panas_none	132.349571358562	23	5	4	10	n/a	n/a	n/a	n/a	n/a	n/a	n/a	n/a	2000	0	BLOCKED	n/a	n/a	+	0	scared	At this moment	1	2	7	232	NONE	n/a	0.686641697877653	n/a	n/a	n/a	n/a	1500.91633466135	0	1864.04779297769	-0.934427073294887	0.000570493110463635	39.1138344113427	1561.99308224443	3	3	0	1	0	1	0
133.333765642166	7.17249507749082	panas_none	140.506260719657	24	5	4	10	n/a	n/a	n/a	n/a	n/a	n/a	n/a	n/a	2000	0	BLOCKED	n/a	n/a	+	0	inspired	At this moment	3	2	7	232	NONE	n/a	0.292134831460674	n/a	n/a	n/a	n/a	1755.74250440917	0	1492.66985072054	0.314567244409593	-0.000102979188961384	16.7015971532746	1671.06840891622	2	4	0	1	0	1	0
141.490274815798	2.51882165181635	reward_vlpfc	144.009096467614	25	2	5	10	0	0	0	0	250	250	250	750	2000	0	BLOCKED	0.75	1	8	1	interested	At this moment	5	2	7	232	VLPFC	1041.62752616405	0.480649188514357	n/a	n/a	n/a	n/a	1194.76201923077	0.230591852421214	487.438256342347	1.08546092797956	-0.000270316886373973	17.5508440480424	1214.77522477522	2	1	1	0	0	0	0
144.993247732043	2.51887313389778	reward_vlpfc	147.512120865941	26	2	5	10	0	0	0	0	250	250	250	750	2000	0	BLOCKED	0.75	-1	4	1	excited	At this moment	2	2	7	232	VLPFC	673.39354622364	0	13183.3568971825	-10.793905409028	0.00238952676136514	34.3572784303582	1178.00124843945	0.253651037663336	n/a	n/a	n/a	n/a	1533.01956745623	1	2	1	0	0	0	0
148.512735830545	2.51871234035491	reward_vlpfc	151.0314481709	27	2	5	10	0	0	0	0	250	250	250	750	2000	0	BLOCKED	0.75	1	4	-1	nervous	At this moment	4	2	7	232	VLPFC	823.67831993103	0.818976279650437	n/a	n/a	n/a	n/a	1397.77931034483	0	864.0394908441	0.528748433191737	-0.000128262901619681	13.6657335341331	1202.76787086856	1	3	1	0	0	0	0
152.032224986792	2.51920776772499	reward_vlpfc	154.551432754517	28	2	5	10	0	0	0	0	250	250	250	750	2000	0	BLOCKED	0.75	1	9	1	enthusiastic	At this moment	3	2	7	232	VLPFC	407.078650593758	0.374531835205993	n/a	n/a	n/a	n/a	999.325349301397	0.230591852421214	1126.19156402532	0.42999842062595	-0.000130835421787354	13.7510872080534	1400.07792207792	2	4	1	0	0	0	0
155.53513795805	2.51872080326081	reward_vlpfc	158.053858761311	29	2	5	10	0	0	0	0	250	250	250	750	2000	0	BLOCKED	0.75	-1	0	1	active	At this moment	1	2	7	232	VLPFC	806.950156807899	0.374531835205993	n/a	n/a	n/a	n/a	1047.79041916168	0	1072.03753560992	0.61295168689967	-0.000220004451884661	14.6705444203927	1402.82628747118	1	5	1	0	0	0	0
159.037983579278	2.51872432959078	reward_vlpfc	161.556707908869	30	2	5	10	0	0	0	0	250	250	250	750	2000	0	BLOCKED	0.75	-1	10	-1	inspired	At this moment	4	2	7	232	VLPFC	574.02000617981	0.803995006242197	n/a	n/a	n/a	n/a	1300.57324840764	0	956.967961346593	0.313786397113465	-5.27035978388859e-05	13.8995598422085	1178.1521906226	1	6	1	0	0	0	0
162.557444878817	2.51870070409777	reward_vlpfc	165.076145582914	31	2	5	10	0	0	0	0	250	250	250	750	2000	0	BLOCKED	0.75	-1	2	1	scared	At this moment	1	2	7	232	VLPFC	523.884530544281	0.935081148564295	n/a	n/a	n/a	n/a	1237.15384615385	0	812.836241277007	0.452502714014994	-9.7762653730075e-05	10.9308742604158	1112.63720215219	1	7	1	0	0	0	0
166.077018310785	2.51876875925063	reward_vlpfc	168.595787070036	32	2	5	10	0	0	0	0	250	250	250	750	2000	0	BLOCKED	0.75	1	7	1	interested	At this moment	1	2	7	232	VLPFC	790.848947167397	0	5748.74922465906	-4.41126628380697	0.00101014640350394	20.0710257645069	990.559300873908	0.401229823212913	n/a	n/a	n/a	n/a	1026.46983311938	1	8	1	0	0	0	0
169.596574816942	6.02160662293434	panas_none	175.618181439877	33	5	6	10	n/a	n/a	n/a	n/a	n/a	n/a	n/a	n/a	2000	0	BLOCKED	n/a	n/a	+	0	distressed	At this moment	2	2	7	232	NONE	n/a	0.586766541822722	n/a	n/a	n/a	n/a	993.540785498489	0.016141429669485	570.102575168552	0.371545018642614	-0.000160095859796992	70.2916060506275	749.66484375	2	1	0	1	0	1	1
176.620866973042	6.01972082579135	panas_none	182.640587798834	34	5	6	10	n/a	n/a	n/a	n/a	n/a	n/a	n/a	n/a	2000	0	BLOCKED	n/a	n/a	+	0	hostile	At this moment	2	2	7	232	NONE	n/a	0.0474406991260924	4381.98835343525	-3.44106000367515	0.000832445016028508	9.49417533139884	866.246395806029	0.31129900076864	n/a	n/a	n/a	n/a	1039.13169642857	2	2	0	1	0	1	1
183.641216868043	6.02164117956164	panas_none	189.662858047605	35	5	6	10	n/a	n/a	n/a	n/a	n/a	n/a	n/a	n/a	2000	0	BLOCKED	n/a	n/a	+	0	jittery	At this moment	3	2	7	232	NONE	n/a	0	-37.7762517836751	0.598974547946891	-6.98282047864997e-05	9.1138645556268	908.334581772784	0.229823212913144	822.469975577197	-0.142517205453329	3.17340673186319e-05	14.8048433602058	718.037924151697	2	3	0	1	0	1	1
190.663740648627	5.65454615342617	panas_none	196.318286802053	36	5	6	10	n/a	n/a	n/a	n/a	n/a	n/a	n/a	n/a	2000	0	BLOCKED	n/a	n/a	+	0	interested	At this moment	5	2	7	232	NONE	n/a	0	-28.4223655298667	1.15322143096678	-0.000266366103450986	11.1013966640045	1204.3570536829	0.245964642582629	686.632594756134	0.833525460396845	-0.000363017011348053	20.2686576233862	1097.90723751274	2	4	0	1	0	1	1
197.319029413939	2.51876347005367	reward_vlpfc	199.837792883992	37	2	7	10	0	0	0	0	250	250	250	750	2000	0	BLOCKED	0.75	1	9	1	alert	At this moment	1	2	7	232	VLPFC	1107.5179412365	0.398252184769039	n/a	n/a	n/a	n/a	1070.26970954357	0	680.49925925795	0.748616947183617	-0.000166244408986959	14.6086033012714	1173.20445810915	1	1	1	0	0	0	0
200.83863528657	2.51873596584795	reward_vlpfc	203.357371252418	38	2	7	10	0	0	0	0	250	250	250	750	2000	0	BLOCKED	0.75	1	10	1	excited	At this moment	3	2	7	232	VLPFC	489.937361121178	0.481897627965044	n/a	n/a	n/a	n/a	1122.43614457831	0	828.58072992698	0.49189858125066	-5.27440077592385e-05	17.8019977378694	1201.71252882398	1	2	1	0	0	0	0
204.358199903011	2.51870951950551	reward_vlpfc	206.876909422517	39	2	7	10	0	0	0	0	250	250	250	750	2000	0	BLOCKED	0.75	-1	7	-1	nervous	At this moment	4	2	7	232	VLPFC	524.277698755264	0	1211.23286196208	0.199370463460158	-3.49381801701722e-05	20.4930167431411	1473.76279650437	0.245964642582629	1051.79591082398	0.429823961473411	-0.000131555084742123	16.2869399406144	1330.97247706422	1	3	1	0	0	0	0
207.87763228786	2.51872221386432	reward_vlpfc	210.396354501724	40	2	7	10	0	0	0	0	250	250	250	750	2000	0	BLOCKED	0.75	-1	3	1	distressed	At this moment	1	2	7	232	VLPFC	423.674934983253	0.392009987515606	n/a	n/a	n/a	n/a	907.244353182752	0	921.007641668542	0.387430749568157	-5.77458668861736e-05	11.8544120095336	1200.25826287471	1	4	1	0	0	0	0
211.397852419853	2.51828461575508	reward_vlpfc	213.916137035608	41	2	7	10	0	0	0	0	250	250	250	750	2000	0	BLOCKED	0.75	-1	3	1	strong	At this moment	5	2	7	232	VLPFC	490.275520920753	0.571785268414482	n/a	n/a	n/a	n/a	1291.67930029155	0	1048.79473652535	0.228097284486352	1.16996152716459e-05	17.7150625971681	1252.94850115296	1	5	1	0	0	0	0
214.916752705336	2.51875712275503	reward_vlpfc	217.435509828091	42	2	7	10	0	0	0	0	250	250	250	750	2000	0	BLOCKED	0.75	-1	1	1	irritable	At this moment	2	2	7	232	VLPFC	573.375069022179	0.374531835205993	n/a	n/a	n/a	n/a	1043.28343313373	0	855.35951798029	0.506582653395969	-9.38508159668222e-05	17.2658615110545	1204.65411222137	1	6	1	0	0	0	0
218.419579285264	2.51878110086918	reward_vlpfc	220.938360386133	43	2	7	10	0	0	0	0	250	250	250	750	2000	0	BLOCKED	0.75	1	1	-1	proud	At this moment	5	2	7	232	VLPFC	840.175518751144	0.374531835205993	n/a	n/a	n/a	n/a	1447.72654690619	0	987.933282599812	0.540534932480251	-0.000171599105906784	11.8445077824674	1299.16756341276	1	7	1	0	0	0	0
221.939153774977	2.518677431345	reward_vlpfc	224.457831206322	44	2	7	10	0	0	0	0	250	250	250	750	2000	0	BLOCKED	0.75	1	9	1	guilty	At this moment	5	2	7	232	VLPFC	341.314472556114	0.374531835205993	n/a	n/a	n/a	n/a	1296.02395209581	0	997.315080095481	0.460813915597936	-5.29019812068172e-05	16.4813788850695	1342.16756341276	1	8	1	0	0	0	0
225.458672551155	6.02158969736098	panas_none	231.480262248516	45	5	8	10	n/a	n/a	n/a	n/a	n/a	n/a	n/a	n/a	2000	0	BLOCKED	n/a	n/a	+	0	strong	At this moment	5	2	7	232	NONE	n/a	0	-802.453250528003	1.73020894637753	-0.000333675161586492	16.6314557751346	1340.822721598	0	883.438994443078	0.271569610536176	-1.38343648393849e-05	91.800051825063	1105.13835511145	1	1	0	1	0	1	1
232.480980882525	6.02163589024545	panas_none	238.502616772771	46	5	8	10	n/a	n/a	n/a	n/a	n/a	n/a	n/a	n/a	2000	0	BLOCKED	n/a	n/a	+	0	jittery	At this moment	2	2	7	232	NONE	n/a	0.392009987515606	n/a	n/a	n/a	n/a	1205.31006160164	0	1193.75142005042	0.473847576033842	-0.000311928092814918	20.500169770932	1327.08685626441	1	2	0	1	0	1	1
239.503450007439	6.0216281324625	panas_none	245.525078139901	47	5	8	10	n/a	n/a	n/a	n/a	n/a	n/a	n/a	n/a	2000	0	BLOCKED	n/a	n/a	+	0	irritable	At this moment	2	2	7	232	NONE	n/a	0	519.662373505372	0.277041379370425	1.4317814378939e-06	12.8008417186384	1107.93757802747	0	953.577147514666	0.310428358353226	-0.000205654756881673	18.9736453444543	1039.64411990776	2	3	0	1	0	1	1
246.509141250014	8.50699134254455	panas_none	255.016132592559	48	5	8	10	n/a	n/a	n/a	n/a	n/a	n/a	n/a	n/a	2000	0	BLOCKED	n/a	n/a	+	0	guilty	At this moment	2	2	7	232	NONE	n/a	0	568.350322619027	0.522860342125251	-8.31604522919934e-05	12.8307990274367	1295.16229712859	0	704.898811059853	0.671057272384771	-0.000209007704196413	12.6845368295611	1094.87086856264	1	4	0	1	0	1	1
256.000149509788	2.51878004300596	punish_rtpj	258.518929552794	49	3	9	10	750	250	250	250	0	0	0	0	2000	0	BLOCKED	0.25	1	1	-1	distressed	At this moment	2	2	7	232	RTPJ	757.105237841606	0.544319600499376	n/a	n/a	n/a	n/a	1370.19178082192	0	443.439638410809	0.923573174826043	-0.000268882056436061	12.4545441087728	996.193697156034	1	1	0	0	1	0	0
259.519735988498	2.51867355251312	punish_rtpj	262.038409541011	50	3	9	10	750	250	250	250	0	0	0	0	2000	0	BLOCKED	0.25	1	0	-1	nervous	At this moment	1	2	7	232	RTPJ	473.062509059906	0.747815230961298	n/a	n/a	n/a	n/a	1427.62871287129	0.401229823212913	n/a	n/a	n/a	n/a	1369.43260590501	2	2	0	0	1	0	0
263.03928473711	2.51874795472617	punish_rtpj	265.558032691836	51	3	9	10	750	250	250	250	0	0	0	0	2000	0	BLOCKED	0.25	1	9	1	afraid	At this moment	3	2	7	232	RTPJ	424.068808317184	0.378277153558052	n/a	n/a	n/a	n/a	950.849397590361	0	813.449593774955	0.803740545627844	-0.000260296178871561	15.1707453755213	1272.49884704074	1	3	0	0	1	0	0
266.558795050383	2.51869083094596	punish_rtpj	269.077485881329	52	3	9	10	750	250	250	250	0	0	0	0	2000	0	BLOCKED	0.25	1	3	-1	excited	At this moment	3	2	7	232	RTPJ	607.063064932823	0.815230961298377	n/a	n/a	n/a	n/a	1207.71621621622	0	923.913886787946	0.355470442771404	-7.57685180077282e-05	33.805673073394	1160.4189085319	1	4	0	0	1	0	0
270.061644550562	2.51870775640015	punish_rtpj	272.580352306962	53	3	9	10	750	250	250	250	0	0	0	0	2000	0	BLOCKED	0.25	1	0	-1	enthusiastic	At this moment	1	2	7	232	RTPJ	341.039430975914	1	n/a	n/a	n/a	n/a	n/a	1	n/a	n/a	n/a	n/a	n/a	1	5	0	0	1	0	0
273.581222213745	2.51875500726703	punish_rtpj	276.099977221012	54	3	9	10	750	250	250	250	0	0	0	0	2000	0	BLOCKED	0.25	1	0	-1	ashamed	At this moment	1	2	7	232	RTPJ	574.153295397758	0.413233458177278	n/a	n/a	n/a	n/a	1151.71063829787	0	740.649716070182	0.0992781663995498	0.000118225576372324	15.8535219879839	927.159877017679	1	6	0	0	1	0	0
277.100632736444	2.51877827990052	punish_rtpj	279.619411016345	55	3	9	10	750	250	250	250	0	0	0	0	2000	0	BLOCKED	0.25	-1	6	-1	irritable	At this moment	4	2	7	232	RTPJ	423.76837849617	0.744069912609238	n/a	n/a	n/a	n/a	1137.33658536585	0	782.987774196754	0.53054515457118	-0.000185505416478612	22.0895719902884	1073.91698693313	1	7	0	0	1	0	0
280.603537950039	2.51870528817176	punish_rtpj	283.122243238211	56	3	9	10	750	250	250	250	0	0	0	0	2000	0	BLOCKED	0.25	-1	0	1	scared	At this moment	4	2	7	232	RTPJ	606.962216496468	0	12159.5613397169	-9.94509154940667	0.00222259175372219	37.7177520619634	1192.41822721598	0.308993082244427	n/a	n/a	n/a	n/a	1409.48832035595	1	8	0	0	1	0	0
284.109750361085	6.01813545870783	panas_none	290.127885819793	57	5	10	10	n/a	n/a	n/a	n/a	n/a	n/a	n/a	n/a	2000	0	BLOCKED	n/a	n/a	+	0	nervous	At this moment	3	2	7	232	NONE	n/a	0.181023720349563	2221.48546985281	-1.14118596639244	0.000328695216481882	16.3997609636836	1304.42073170732	0	557.95697810849	0.775426605682985	-0.000281862603116514	65.8500856026787	982.700230591852	3	1	0	1	0	0	0
291.112313183308	6.02136402249334	panas_none	297.133677205801	58	5	10	10	n/a	n/a	n/a	n/a	n/a	n/a	n/a	n/a	2000	0	BLOCKED	n/a	n/a	+	0	afraid	At this moment	2	2	7	232	NONE	n/a	0.313358302122347	n/a	n/a	n/a	n/a	1064.92545454545	0	1411.98667896316	-0.19409931396841	1.8983880640137e-05	15.5354546731313	1263.43120676403	1	2	0	1	0	0	0
298.140026079655	6.01603809106348	panas_none	304.156064170718	59	5	10	10	n/a	n/a	n/a	n/a	n/a	n/a	n/a	n/a	2000	0	BLOCKED	n/a	n/a	+	0	jittery	At this moment	3	2	7	232	NONE	n/a	0	2422.5848092937	-1.59676124018984	0.000398831013529071	9.36262976108381	849.469413233458	0	860.262848592921	0.115703604957124	-6.24075536449549e-05	17.8742160117657	904.471176018447	2	3	0	1	0	0	0
305.156872016788	6.5887125097513	panas_none	311.745584526539	60	5	10	10	n/a	n/a	n/a	n/a	n/a	n/a	n/a	n/a	2000	0	BLOCKED	n/a	n/a	+	0	active	At this moment	3	2	7	232	NONE	n/a	0	1019.05781558456	0.262750314464456	-5.24094889252424e-05	12.3970125193997	1336.85892634207	0.0138355111452729	1210.71177016901	0.0757164298741909	-1.1840270048409e-05	17.165924578623	1260.33671083398	2	4	0	1	0	0	0
312.729622600794	2.51876311743257	punish_vlpfc	315.248385718226	61	4	11	10	0	0	0	0	250	250	250	750	2000	0	BLOCKED	0.25	1	2	-1	enthusiastic	At this moment	4	2	7	232	VLPFC	723.722256064415	0.81023720349563	n/a	n/a	n/a	n/a	1378.22368421053	0.279016141429669	n/a	n/a	n/a	n/a	939.733475479744	3	1	0	0	1	0	0
316.249269024491	2.51872362411024	punish_vlpfc	318.767992648602	62	4	11	10	0	0	0	0	250	250	250	750	2000	0	BLOCKED	0.25	1	2	-1	irritable	At this moment	5	2	7	232	VLPFC	624.548649907112	1	n/a	n/a	n/a	n/a	n/a	1	n/a	n/a	n/a	n/a	n/a	2	2	0	0	1	0	0
319.768880186319	2.53531179821493	punish_vlpfc	322.304191984534	63	4	11	10	0	0	0	0	250	250	250	750	2000	0	BLOCKED	0.25	1	1	-1	scared	At this moment	5	2	7	232	VLPFC	507.587265729904	1	n/a	n/a	n/a	n/a	n/a	1	n/a	n/a	n/a	n/a	n/a	2	3	0	0	1	0	0
323.304912029028	2.51903815889358	punish_vlpfc	325.823950187922	64	4	11	10	0	0	0	0	250	250	250	750	2000	0	BLOCKED	0.25	1	0	-1	upset	At this moment	2	2	7	232	VLPFC	373.788054466248	1	n/a	n/a	n/a	n/a	n/a	1	n/a	n/a	n/a	n/a	n/a	2	4	0	0	1	0	0
326.824519312143	2.51870599341396	punish_vlpfc	329.343225305557	65	4	11	10	0	0	0	0	250	250	250	750	2000	0	BLOCKED	0.25	-1	7	-1	guilty	At this moment	5	2	7	232	VLPFC	356.814822435379	0.548064918851436	n/a	n/a	n/a	n/a	1959.04419889503	0	1649.00050196655	0.416412563492163	-8.88309125777595e-05	12.8672228858166	1925.92928516526	1	5	0	0	1	0	0
330.327375864625	2.51868060493467	punish_vlpfc	332.84605646956	66	4	11	10	0	0	0	0	250	250	250	750	2000	0	BLOCKED	0.25	1	6	1	nervous	At this moment	4	2	7	232	VLPFC	389.841660737991	0	14164.2401197456	-11.1370644506137	0.00237159647689427	47.5929336946709	1359.55930087391	0.31206764027671	n/a	n/a	n/a	n/a	1787.29720670391	1	6	0	0	1	0	0
333.846850916266	2.51862594926359	punish_vlpfc	336.36547686553	67	4	11	10	0	0	0	0	250	250	250	750	2000	0	BLOCKED	0.25	-1	0	1	proud	At this moment	2	2	7	232	VLPFC	306.929352521896	0	11972.6680259016	-9.68123647881612	0.00210698016069966	41.8154560790236	1045.06491885144	0.293620292083013	n/a	n/a	n/a	n/a	1336.77366702938	1	7	0	0	1	0	0
337.366791070104	2.51831846690175	punish_vlpfc	339.885109537005	68	4	11	10	0	0	0	0	250	250	250	750	2000	0	BLOCKED	0.25	-1	10	-1	enthusiastic	At this moment	2	2	7	232	VLPFC	690.309654355049	0	6218.10077123321	-4.59581376857701	0.00101716212560523	62.7930424107878	1095.6429463171	0.991544965411222	n/a	n/a	n/a	n/a	771.363636363636	1	8	0	0	1	0	0
340.885964281321	6.02145288181305	panas_none	346.907417163134	69	5	12	10	n/a	n/a	n/a	n/a	n/a	n/a	n/a	n/a	2000	0	BLOCKED	n/a	n/a	+	0	ashamed	At this moment	2	2	7	232	NONE	n/a	0.277153558052434	n/a	n/a	n/a	n/a	1084.17962003454	0	556.785975580126	1.12926588746818	-0.000615092363299908	90.811666750916	992.84857801691	3	1	0	1	0	0	1
347.908388271093	6.02162813270093	panas_none	353.930016403794	70	5	12	10	n/a	n/a	n/a	n/a	n/a	n/a	n/a	n/a	2000	0	BLOCKED	n/a	n/a	+	0	hostile	At this moment	1	2	7	232	NONE	n/a	0	1176.61259609516	0.00393377656225949	5.71889661589565e-05	17.8845392429408	1440.18601747815	0	1145.9359894597	0.269882021308696	-6.49673833704533e-05	13.2599314006429	1318.66948501153	1	2	0	1	0	0	1
354.930771710038	6.02147403883936	panas_none	360.952245748878	71	5	12	10	n/a	n/a	n/a	n/a	n/a	n/a	n/a	n/a	2000	0	BLOCKED	n/a	n/a	+	0	attentive	At this moment	3	2	7	232	NONE	n/a	1	n/a	n/a	n/a	n/a	n/a	1	n/a	n/a	n/a	n/a	n/a	4	3	0	1	0	0	1
361.93640124464	5.08748117029666	panas_none	367.023882414937	72	5	12	10	n/a	n/a	n/a	n/a	n/a	n/a	n/a	n/a	2000	0	BLOCKED	n/a	n/a	+	0	active	At this moment	5	2	7	232	NONE	n/a	0	422.583093610943	0.966155628078882	-0.000230296537708783	10.4705188434243	1423.32209737828	0	495.267560573654	0.79054860955181	-0.000129085065578312	14.0577993152676	1079.4950038432	1	4	0	1	0	0	1
368.024586591482	2.51872715044021	punish_vlpfc	370.543313741922	73	4	13	10	0	0	0	0	250	250	250	750	2000	0	BLOCKED	0.25	1	3	-1	scared	At this moment	2	2	7	232	VLPFC	774.144762158394	0.543071161048689	n/a	n/a	n/a	n/a	1290.04098360656	0	476.206625793463	0.689339116383104	-0.000132097072586582	9.35253046269784	948.341275941583	2	1	0	0	1	0	0
371.527874747515	2.51842672049997	punish_vlpfc	374.046301468015	74	4	13	10	0	0	0	0	250	250	250	750	2000	0	BLOCKED	0.25	1	7	1	nervous	At this moment	2	2	7	232	VLPFC	373.067657470703	0.803995006242197	n/a	n/a	n/a	n/a	1153.59872611465	0.633358954650269	n/a	n/a	n/a	n/a	1357.77358490566	2	2	0	0	1	0	0
375.047085688829	2.51874196040626	punish_vlpfc	377.565827649236	75	4	13	10	0	0	0	0	250	250	250	750	2000	0	BLOCKED	0.25	1	3	-1	distressed	At this moment	5	2	7	232	VLPFC	489.823113083839	1	n/a	n/a	n/a	n/a	n/a	1	n/a	n/a	n/a	n/a	n/a	2	3	0	0	1	0	0
378.566481048942	2.51874442863465	punish_vlpfc	381.085225477576	76	4	13	10	0	0	0	0	250	250	250	750	2000	0	BLOCKED	0.25	1	2	-1	afraid	At this moment	5	2	7	232	VLPFC	523.409555077553	1	n/a	n/a	n/a	n/a	n/a	1	n/a	n/a	n/a	n/a	n/a	2	4	0	0	1	0	0
382.086222326636	2.51862453877931	punish_vlpfc	384.604846865416	77	4	13	10	0	0	0	0	250	250	250	750	2000	0	BLOCKED	0.25	-1	0	1	guilty	At this moment	5	2	7	232	VLPFC	440.791329622269	0	13755.4793767114	-11.1168958955363	0.00247149477730616	30.2941444845703	1427.95380774032	0.346656418139892	n/a	n/a	n/a	n/a	1680.40470588235	1	5	0	0	1	0	0
385.605676573753	2.51893343150613	punish_vlpfc	388.12461000526	78	4	13	10	0	0	0	0	250	250	250	750	2000	0	BLOCKED	0.25	-1	10	-1	inspired	At this moment	2	2	7	232	VLPFC	573.77317404747	0.923845193508115	n/a	n/a	n/a	n/a	1657.91803278689	0	1111.61774126207	0.514236870254511	-0.000134158448790548	11.0679117551382	1432.47886241353	1	6	0	0	1	0	0
389.125117774248	2.51878462696078	punish_vlpfc	391.643902401209	79	4	13	10	0	0	0	0	250	250	250	750	2000	0	BLOCKED	0.25	-1	8	-1	proud	At this moment	4	2	7	232	VLPFC	457.979658126831	1	n/a	n/a	n/a	n/a	n/a	1	n/a	n/a	n/a	n/a	n/a	3	7	0	0	1	0	0
392.627968332171	2.51885761880874	punish_vlpfc	395.14682595098	80	4	13	10	0	0	0	0	250	250	250	750	2000	0	BLOCKED	0.25	1	3	-1	ashamed	At this moment	5	2	7	232	VLPFC	590.278482913971	0.571785268414482	n/a	n/a	n/a	n/a	2919.89212827988	0.230591852421214	1454.42968800325	1.18298275739766	-0.000186567388435912	26.6853795030455	2403.00799200799	2	8	0	0	1	0	0
396.130952179432	6.02148602795603	panas_none	402.152438207388	81	5	14	10	n/a	n/a	n/a	n/a	n/a	n/a	n/a	n/a	2000	0	BLOCKED	n/a	n/a	+	0	upset	At this moment	2	2	7	232	NONE	n/a	0.377028714107366	n/a	n/a	n/a	n/a	2410.60320641283	0	1878.81526791755	1.38245310128109	-0.000809722554922791	138.694295173254	2367.40430438125	2	1	0	1	0	0	1
403.153216433644	6.02161931729319	panas_none	409.174835750937	82	5	14	10	n/a	n/a	n/a	n/a	n/a	n/a	n/a	n/a	2000	0	BLOCKED	n/a	n/a	+	0	irritable	At this moment	2	2	7	232	NONE	n/a	0	6146.91941771252	-4.38065444231627	0.00103893923261212	26.8841159608745	1583.822721598	0.244427363566487	2383.54076763652	-0.12338305015443	-6.13329776552501e-05	33.9769552538792	2221.97253306205	3	2	0	1	0	0	1
410.1590293293	6.02141691493989	panas_none	416.18044624424	83	5	14	10	n/a	n/a	n/a	n/a	n/a	n/a	n/a	n/a	2000	0	BLOCKED	n/a	n/a	+	0	nervous	At this moment	2	2	7	232	NONE	n/a	0	1608.17057422803	-0.268446442603171	0.000138489444157738	17.0677090392826	1662.40699126092	0	2016.11856218678	-0.553609153047829	0.000282485569891893	41.9373984153012	1789.31514219831	1	3	0	1	0	0	1
417.181390905857	14.7619759402275	panas_none	431.943366846085	84	5	14	10	n/a	n/a	n/a	n/a	n/a	n/a	n/a	n/a	2000	0	BLOCKED	n/a	n/a	+	0	ashamed	At this moment	5	2	7	232	NONE	n/a	0	3087.68519172886	-1.53432027427929	0.000371821520820064	15.3687425451266	1524.96878901373	0	937.888582694502	0.308598015879988	4.92716004422925e-05	25.4121494682286	1243.095311299	0	4	0	1	0	0	1
432.927537151694	2.51864886951444	reward_rtpj	435.446186021209	85	1	15	10	750	250	250	250	0	0	0	0	2000	0	BLOCKED	0.75	1	6	1	strong	At this moment	4	2	7	232	RTPJ	1041.49705779552	0.50561797752809	n/a	n/a	n/a	n/a	1644.00505050505	0.287471176018447	n/a	n/a	n/a	n/a	1215.07335490831	3	1	1	0	0	0	0
436.446945206165	2.51868942022327	reward_rtpj	438.965634626389	86	1	15	10	750	250	250	250	0	0	0	0	2000	0	BLOCKED	0.75	1	7	1	afraid	At this moment	4	2	7	232	RTPJ	674.353723049164	0.600499375780275	n/a	n/a	n/a	n/a	1759.54375	0.594158339738663	n/a	n/a	n/a	n/a	1916.80303030303	2	2	1	0	0	0	0
439.95048654139	2.51810830700396	reward_rtpj	442.468594848394	87	1	15	10	750	250	250	250	0	0	0	0	2000	0	BLOCKED	0.75	1	10	1	enthusiastic	At this moment	5	2	7	232	RTPJ	639.673109650612	0.920099875156055	n/a	n/a	n/a	n/a	1881.21875	0	1342.57112374355	0.639226711786901	-0.000168775636053847	19.1020795832283	1740.190622598	1	3	1	0	0	0	0
443.469438661575	2.51867813646794	reward_rtpj	445.988116798043	88	1	15	10	750	250	250	250	0	0	0	0	2000	0	BLOCKED	0.75	1	7	1	distressed	At this moment	2	2	7	232	RTPJ	557.662091135979	0.84019975031211	n/a	n/a	n/a	n/a	1473.140625	0	1338.87685373304	0.678027454746002	-0.000280352313675688	15.7628328811842	1673.11990776326	1	4	1	0	0	0	0
446.972207412362	2.51872820830346	reward_rtpj	449.490935620666	89	1	15	10	750	250	250	250	0	0	0	0	2000	0	BLOCKED	0.75	1	4	-1	upset	At this moment	3	2	7	232	RTPJ	590.458670377731	0.619225967540574	n/a	n/a	n/a	n/a	1493.66557377049	0.318216756341276	n/a	n/a	n/a	n/a	1312.38105975197	2	5	1	0	0	0	0
450.475031171322	2.51886608159543	reward_rtpj	452.993897252917	90	1	15	10	750	250	250	250	0	0	0	0	2000	0	BLOCKED	0.75	-1	0	1	determined	At this moment	3	2	7	232	RTPJ	440.725037574768	0	11231.6271354334	-9.00766249548896	0.00199117197137174	43.5662106295114	1201.32584269663	0.350499615680246	n/a	n/a	n/a	n/a	1409.35857988166	1	6	1	0	0	0	0
453.994601782322	2.51884316146374	reward_rtpj	456.513444943786	91	1	15	10	750	250	250	250	0	0	0	0	2000	0	BLOCKED	0.75	-1	9	-1	active	At this moment	4	2	7	232	RTPJ	557.709341883659	0	1646.29013750038	-0.444516082486148	0.00015369888824866	15.110875916905	1398.8127340824	0.30053804765565	n/a	n/a	n/a	n/a	1112.43626373626	1	7	1	0	0	0	0
457.497438235521	2.51875641775132	reward_rtpj	460.016194653273	92	1	15	10	750	250	250	250	0	0	0	0	2000	0	BLOCKED	0.75	-1	4	1	interested	At this moment	1	2	7	232	RTPJ	656.61777985096	0.735330836454432	n/a	n/a	n/a	n/a	1071.39150943396	0.531898539584935	n/a	n/a	n/a	n/a	1006.98850574713	2	8	1	0	0	0	0
461.016904824376	6.02167608857155	panas_none	467.038580912948	93	5	16	10	n/a	n/a	n/a	n/a	n/a	n/a	n/a	n/a	2000	0	BLOCKED	n/a	n/a	+	0	inspired	At this moment	3	2	7	232	NONE	n/a	0	-457.688071841777	0.801390548814365	-5.79301697745409e-05	11.463587178887	966.660424469413	0.170637970791699	2047.40423876395	-1.60080449131763	0.000486281551949186	35.1453177941818	993.55421686747	1	1	0	1	0	1	0
468.039362312913	6.02234394562242	panas_none	474.061706258535	94	5	16	10	n/a	n/a	n/a	n/a	n/a	n/a	n/a	n/a	2000	0	BLOCKED	n/a	n/a	+	0	alert	At this moment	4	2	7	232	NONE	n/a	0.491885143570537	n/a	n/a	n/a	n/a	832.316953316953	0	982.581745403544	-0.0057485168395396	-4.24919261047953e-05	13.0339712888159	940.946963873943	2	2	0	1	0	1	0
475.064307516098	6.0190198228359	panas_none	481.083327338934	95	5	16	10	n/a	n/a	n/a	n/a	n/a	n/a	n/a	n/a	2000	0	BLOCKED	n/a	n/a	+	0	ashamed	At this moment	1	2	7	232	NONE	n/a	0.565543071161049	n/a	n/a	n/a	n/a	1245.45689655172	0	1868.09043682708	-1.4373844644405	0.00073675644081247	32.2942296801356	1281.74865488086	1	3	0	1	0	1	0
482.084082292438	5.87152636730673	panas_none	487.955608659744	96	5	16	10	n/a	n/a	n/a	n/a	n/a	n/a	n/a	n/a	2000	0	BLOCKED	n/a	n/a	+	0	afraid	At this moment	5	2	7	232	NONE	n/a	0	1281.27131668274	-0.346439377820838	0.000149610620643103	9.73271784930542	1221.07365792759	0.230591852421214	1347.19407198984	-0.362719438833945	0.000103697795774702	33.0879162456734	1098.5974025974	1	4	0	1	0	1	0
