onset	duration	trial_type	offset	trial	block	blockCntr	frequency	amplitude_1	amplitude_2	amplitude_3	amplitude_4	amplitude_5	amplitude_6	amplitude_7	amplitude_8	transition	sham	mode	rewardFraction	guess	outcome	correct	word	when	answer	runNr	scanNr	subjectNr	target	reactionTime	outcomeEyeClosed	outcomeParms_1	outcomeParms_2	outcomeParms_3	outcomeSigma	outcomePupilArea	guessEyeClosed	guessParms_1	guessParms_2	guessParms_3	guessSigma	guessPupilArea	nrBlinks	trialInBlock	isReward	isPanas	isPunish	beforePanasReward	beforePanasVLPFC
20.3092911828756	2.50861232411862	punish_rtpj	22.8179035069942	1	3	1	10	750	250	250	250	0	0	0	0	2000	0	BLOCKED	0.25	1	9	1	scared	At this moment	2	4	9	232	RTPJ	749.048285961151	0.304619225967541	n/a	n/a	n/a	n/a	1156.4829443447	0	1578.43606568989	-0.0595827111703707	0.000226712296134274	23.7964720016469	1723.02075326672	1	1	0	0	1	0	0
23.8186715073586	2.51870528805256	punish_rtpj	26.3373767954111	2	3	1	10	750	250	250	250	0	0	0	0	2000	0	BLOCKED	0.25	1	7	1	afraid	At this moment	4	4	9	232	RTPJ	373.298974275589	0.923845193508115	n/a	n/a	n/a	n/a	1676.77049180328	0	1001.42009847229	0.814697946097822	-0.000226925790222145	25.0848495633667	1498.20676402767	1	2	0	0	1	0	0
27.3215506273508	2.51868836247921	punish_rtpj	29.84023898983	3	3	1	10	750	250	250	250	0	0	0	0	2000	0	BLOCKED	0.25	-1	10	-1	interested	At this moment	3	4	9	232	RTPJ	357.294734358788	0.722846441947566	n/a	n/a	n/a	n/a	1020.17567567568	0	869.173911515823	0.670682530392492	-0.000274965980468015	24.4892827231427	1201.96541122214	1	3	0	0	1	0	0
30.8244424415827	2.51862947535515	punish_rtpj	33.3430719169378	4	3	1	10	750	250	250	250	0	0	0	0	2000	0	BLOCKED	0.25	-1	8	-1	hostile	At this moment	5	4	9	232	RTPJ	357.116310119629	0.784019975031211	n/a	n/a	n/a	n/a	1069.82080924855	0	981.436120547715	0.20433831780224	2.80492123838482e-06	27.5516903026135	1157.36664104535	1	4	0	0	1	0	0
34.3272552695274	2.51867108428478	punish_rtpj	36.8459263538122	5	3	1	10	750	250	250	250	0	0	0	0	2000	0	BLOCKED	0.25	1	0	-1	determined	At this moment	5	4	9	232	RTPJ	257.441987395287	0.870162297128589	n/a	n/a	n/a	n/a	1191	0	744.20597085687	0.315485512683707	-3.12356163949268e-05	17.1992277946887	985.581091468101	1	5	0	0	1	0	0
37.8299852323532	2.51877616417408	punish_rtpj	40.3487613965273	6	3	1	10	750	250	250	250	0	0	0	0	2000	0	BLOCKED	0.25	1	1	-1	strong	At this moment	2	4	9	232	RTPJ	623.338114857674	0.593008739076155	n/a	n/a	n/a	n/a	987.546012269939	0	628.287077376065	0.769879724287252	-0.000329237953719562	26.2097337278574	998.576479631053	1	6	0	0	1	0	0
41.3496330664158	2.51877158021927	punish_rtpj	43.8684046466351	7	3	1	10	750	250	250	250	0	0	0	0	2000	0	BLOCKED	0.25	1	4	-1	active	At this moment	2	4	9	232	RTPJ	290.10774576664	0.838951310861423	n/a	n/a	n/a	n/a	793.875968992248	0	676.254425976995	0.26437938179558	-0.000134379643652206	15.7498053896875	784.977709454266	1	7	0	0	1	0	0
44.852614798069	2.51854978382588	punish_rtpj	47.3711645818949	8	3	1	10	750	250	250	250	0	0	0	0	2000	0	BLOCKED	0.25	-1	9	-1	enthusiastic	At this moment	1	4	9	232	RTPJ	307.876129746437	0.895131086142322	n/a	n/a	n/a	n/a	1245.5	0	641.094168809301	0.647324488602588	-0.000175751582221567	17.0121538073407	1039.63643351268	1	8	0	0	1	0	0
48.3826602574587	6.01088741075992	panas_none	54.3935476682186	9	5	2	10	n/a	n/a	n/a	n/a	n/a	n/a	n/a	n/a	2000	0	BLOCKED	n/a	n/a	+	0	ashamed	At this moment	3	4	9	232	NONE	n/a	0.373283395755306	n/a	n/a	n/a	n/a	1012.5577689243	0	624.865082400945	0.747765523233818	-0.000408288534749098	110.380616639797	912.735588009224	2	1	0	1	0	0	0
55.3776992851496	6.02159957063198	panas_none	61.3992988557816	10	5	2	10	n/a	n/a	n/a	n/a	n/a	n/a	n/a	n/a	2000	0	BLOCKED	n/a	n/a	+	0	irritable	At this moment	2	4	9	232	NONE	n/a	0	75.2783172051309	0.655323345003471	-5.4962371514389e-05	21.2244009408624	1205.57677902622	0	957.547029390399	0.558305599385178	-0.000402589661236451	40.5997926899125	1085.32436587241	1	2	0	1	0	0	0
62.3833013156652	6.02165986824036	panas_none	68.4049611839056	11	5	2	10	n/a	n/a	n/a	n/a	n/a	n/a	n/a	n/a	2000	0	BLOCKED	n/a	n/a	+	0	afraid	At this moment	1	4	9	232	NONE	n/a	0	5124.53237103844	-3.74627496750764	0.000868099482977178	18.3991474245477	1131.73533083645	0.229823212913144	1207.43802629304	0.0288714409284528	7.67492368194127e-05	14.6088054146423	1271.04690618762	3	3	0	1	0	0	0
69.3891011644602	5.78797088503838	panas_none	75.1770720494986	12	5	2	10	n/a	n/a	n/a	n/a	n/a	n/a	n/a	n/a	2000	0	BLOCKED	n/a	n/a	+	0	enthusiastic	At this moment	3	4	9	232	NONE	n/a	0.348314606741573	n/a	n/a	n/a	n/a	1886.65708812261	0.242121445042275	1145.6744849739	1.13130772760163	-0.000495918536891207	28.9236935248109	1692.46653144016	2	4	0	1	0	0	0
76.1615237438679	2.51847150278091	punish_vlpfc	78.6799952466488	13	4	3	10	0	0	0	0	250	250	250	750	2000	0	BLOCKED	0.25	1	0	-1	nervous	At this moment	4	4	9	232	VLPFC	1056.80875718594	0.550561797752809	n/a	n/a	n/a	n/a	1860.84722222222	0	772.376131352618	0.98902963195127	-0.000277336677132187	23.6510326078296	1372.96310530361	2	1	0	0	1	0	0
79.6641475688219	2.51880578410626	punish_vlpfc	82.1829533529282	14	4	3	10	0	0	0	0	250	250	250	750	2000	0	BLOCKED	0.25	-1	1	1	hostile	At this moment	3	4	9	232	VLPFC	490.179256558418	0.48314606741573	n/a	n/a	n/a	n/a	1621.49275362319	0.27978478093774	n/a	n/a	n/a	n/a	1892.75880469584	2	2	0	0	1	0	0
83.166887757659	2.51878533220291	punish_vlpfc	85.6856730898619	15	4	3	10	0	0	0	0	250	250	250	750	2000	0	BLOCKED	0.25	-1	9	-1	inspired	At this moment	5	4	9	232	VLPFC	757.452213287354	0.776529338327091	n/a	n/a	n/a	n/a	1784.71508379888	0	1604.23849887357	0.37285129682741	-1.40551801718767e-05	33.0943725426227	1908.54727132975	1	3	0	0	1	0	0
86.6697277371883	2.51884421920776	punish_vlpfc	89.1885719563961	16	4	3	10	0	0	0	0	250	250	250	750	2000	0	BLOCKED	0.25	-1	7	-1	afraid	At this moment	5	4	9	232	VLPFC	256.847121953964	0.66916354556804	n/a	n/a	n/a	n/a	1567.49056603774	0	1153.05336665234	0.736314476238005	-0.00019479542508042	18.7495512826232	1610.54112221368	1	4	0	0	1	0	0
90.1726562235355	2.51878744792938	punish_vlpfc	92.6914436714649	17	4	3	10	0	0	0	0	250	250	250	750	2000	0	BLOCKED	0.25	1	3	-1	attentive	At this moment	1	4	9	232	VLPFC	291.119757294655	0.380774032459426	n/a	n/a	n/a	n/a	1519.63508064516	0	945.399727826757	0.878088921405791	-0.000240705632172916	21.9553051402317	1483.66871637202	1	5	0	0	1	0	0
93.6754084012508	2.5188777179718	punish_vlpfc	96.1942861192226	18	4	3	10	0	0	0	0	250	250	250	750	2000	0	BLOCKED	0.25	1	10	1	irritable	At this moment	4	4	9	232	VLPFC	373.196010112762	0.544319600499376	n/a	n/a	n/a	n/a	981.605479452055	0	922.820097841955	0.506200169569984	-0.000111820530616771	15.3426566402106	1256.45196003075	1	6	0	0	1	0	0
97.1782839951515	2.51879026889802	punish_vlpfc	99.6970742640495	19	4	3	10	0	0	0	0	250	250	250	750	2000	0	BLOCKED	0.25	-1	7	-1	jittery	At this moment	3	4	9	232	VLPFC	623.808506250381	0.885143570536829	n/a	n/a	n/a	n/a	1426.23913043478	0	952.705589169021	0.480094067971272	-0.000133331208345201	19.3107154200318	1246.26748654881	1	7	0	0	1	0	0
100.681213186622	2.51867425799371	punish_vlpfc	103.199887444615	20	4	3	10	0	0	0	0	250	250	250	750	2000	0	BLOCKED	0.25	-1	9	-1	afraid	At this moment	4	4	9	232	VLPFC	692.448983430862	0.454431960049938	n/a	n/a	n/a	n/a	1345.0823798627	0	1048.89749552872	0.612091390159869	-0.000139314670838611	16.7511139500003	1448.37202152191	1	8	0	0	1	0	0
104.200739720464	6.02208547723292	panas_none	110.222825197697	21	5	4	10	n/a	n/a	n/a	n/a	n/a	n/a	n/a	n/a	2000	0	BLOCKED	n/a	n/a	+	0	attentive	At this moment	4	4	9	232	NONE	n/a	0	1766.92966876461	-1.39271821567469	0.000441064851547323	16.9000710893213	810.593008739076	0	512.689645411132	0.702054046672371	-0.000328752303245989	85.2480910591703	831.859338970023	1	1	0	1	0	0	1
111.206475392818	6.02152834212781	panas_none	117.228003734946	22	5	4	10	n/a	n/a	n/a	n/a	n/a	n/a	n/a	n/a	2000	0	BLOCKED	n/a	n/a	+	0	alert	At this moment	4	4	9	232	NONE	n/a	0	273.863799901932	0.559260230342032	-0.000132214437681154	21.5658223516431	858.495630461923	0.222905457340507	1097.52368068538	-0.269155895668478	2.10809795067529e-05	16.30849053348	919.629080118694	2	2	0	1	0	0	1
118.212169103861	6.02152305269242	panas_none	124.233692156553	23	5	4	10	n/a	n/a	n/a	n/a	n/a	n/a	n/a	n/a	2000	0	BLOCKED	n/a	n/a	+	0	upset	At this moment	1	4	9	232	NONE	n/a	0	910.649009801078	-0.0822501056570123	-6.9104055322842e-06	14.222868174249	707.200998751561	0.221368178324366	712.317250089236	0.181064842002666	-0.000111946681664729	13.8458926659817	774.490621915104	3	3	0	1	0	0	1
125.217850120664	5.22090590202809	panas_none	130.438756022692	24	5	4	10	n/a	n/a	n/a	n/a	n/a	n/a	n/a	n/a	2000	0	BLOCKED	n/a	n/a	+	0	strong	At this moment	3	4	9	232	NONE	n/a	0	888.400664688406	0.0942015234265428	-3.53289411076146e-05	13.6106558503694	928.58177278402	0	529.189465669621	0.77800621355682	-0.000322724723362384	25.3185774838216	912.446579554189	1	4	0	1	0	0	1
131.422818427444	2.5187920320034	reward_vlpfc	133.941610459447	25	2	5	10	0	0	0	0	250	250	250	750	2000	0	BLOCKED	0.75	1	6	1	guilty	At this moment	4	4	9	232	VLPFC	874.73201084137	0	1328.95768286016	-0.405619803129775	0.000125609009201661	16.9253033196702	1036.66916354557	0.240584166026134	315.906381565099	0.97045645638268	-0.000501713609936164	17.8417301106779	713.395748987854	1	1	1	0	0	0	0
134.925771597028	2.51865380609036	reward_vlpfc	137.444425403118	26	2	5	10	0	0	0	0	250	250	250	750	2000	0	BLOCKED	0.75	1	1	-1	inspired	At this moment	3	4	9	232	VLPFC	690.79097700119	0	2090.83230942727	-0.821723700996035	0.000144999650454444	19.1518819906686	1012.19975031211	0.284396617986165	n/a	n/a	n/a	n/a	1051.76262083781	1	2	1	0	0	0	0
138.428622860312	2.51864216959476	reward_vlpfc	140.947265029907	27	2	5	10	0	0	0	0	250	250	250	750	2000	0	BLOCKED	0.75	1	6	1	enthusiastic	At this moment	5	4	9	232	VLPFC	474.641176581383	0.52059925093633	n/a	n/a	n/a	n/a	777.158854166667	0	448.013366465179	0.786714096633292	-0.000373751092652372	18.3221439045979	795.500384319754	1	3	1	0	0	0	0
141.931371159196	2.51882270967963	reward_vlpfc	144.450193868876	28	2	5	10	0	0	0	0	250	250	250	750	2000	0	BLOCKED	0.75	-1	7	-1	irritable	At this moment	2	4	9	232	VLPFC	457.556870222092	0	926.531797927001	-0.0711057955914562	6.20080451678736e-05	16.6549455901525	1053.86641697878	0.349730976172175	n/a	n/a	n/a	n/a	825.924349881797	1	4	1	0	0	0	0
145.434286951423	2.51875853335858	reward_vlpfc	147.953045484781	29	2	5	10	0	0	0	0	250	250	250	750	2000	0	BLOCKED	0.75	-1	0	1	proud	At this moment	2	4	9	232	VLPFC	508.625018358231	0	10183.5894566902	-8.73686240718475	0.00201968145563703	36.0329335092793	849.937578027466	0.256725595695619	n/a	n/a	n/a	n/a	895.384694932782	1	5	1	0	0	0	0
148.953816658735	2.51873455536366	reward_vlpfc	151.472551214099	30	2	5	10	0	0	0	0	250	250	250	750	2000	0	BLOCKED	0.75	-1	4	1	upset	At this moment	2	4	9	232	VLPFC	489.832986354828	0	7795.79069897749	-6.69819690286994	0.00161548365033494	32.3012164620353	940.179775280899	0.458109146810146	n/a	n/a	n/a	n/a	844.556028368794	1	6	1	0	0	0	0
152.473325208902	2.51866367936134	reward_vlpfc	154.991988888264	31	2	5	10	0	0	0	0	250	250	250	750	2000	0	BLOCKED	0.75	-1	2	1	attentive	At this moment	2	4	9	232	VLPFC	824.482640028	0	3803.30223915751	-2.81896228937405	0.000686023984753992	19.0625657020196	945.154806491885	0.625672559569562	n/a	n/a	n/a	n/a	1125.06776180698	1	7	1	0	0	0	0
155.976603491783	2.51828990495204	reward_vlpfc	158.494893396735	32	2	5	10	0	0	0	0	250	250	250	750	2000	0	BLOCKED	0.75	1	7	1	distressed	At this moment	2	4	9	232	VLPFC	483.048629999161	0.578027465667915	n/a	n/a	n/a	n/a	865.91124260355	0	585.713199279158	0.729145516705372	-0.00023448145303372	18.9319673599484	1003.21675634128	1	8	1	0	0	0	0
159.495801738739	6.02146487092972	panas_none	165.517266609669	33	5	6	10	n/a	n/a	n/a	n/a	n/a	n/a	n/a	n/a	2000	0	BLOCKED	n/a	n/a	+	0	ashamed	At this moment	1	4	9	232	NONE	n/a	0.0873907615480649	154.75982980905	0.411258374688399	1.20076004372581e-06	12.7425483375062	1009.11764705882	0	533.434303723356	0.589645293204295	-0.000315044523805795	42.7421268446464	764.574173712529	2	1	0	1	0	1	1
166.501436915278	6.02166621530054	panas_none	172.523103130579	34	5	6	10	n/a	n/a	n/a	n/a	n/a	n/a	n/a	n/a	2000	0	BLOCKED	n/a	n/a	+	0	excited	At this moment	3	4	9	232	NONE	n/a	0	-1358.41085716521	2.23894913038253	-0.000486508126023383	23.1833762423915	1171.65667915106	0	1244.44865908385	0.0961090261522127	-0.000179439619079296	31.6476999914387	1170.78401229823	1	2	0	1	0	1	1
173.507068212986	6.02159428143503	panas_none	179.528662494421	35	5	6	10	n/a	n/a	n/a	n/a	n/a	n/a	n/a	n/a	2000	0	BLOCKED	n/a	n/a	+	0	nervous	At this moment	2	4	9	232	NONE	n/a	0	-2503.98418711647	2.98241914681077	-0.00063301745013075	13.5802090808095	933.579275905119	0.228285933897002	1181.69967521454	-0.206627871599515	-5.63621979325316e-05	26.3882860604477	895.506972111554	3	3	0	1	0	1	1
180.512902618289	12.0764044040442	panas_none	192.589307022333	36	5	6	10	n/a	n/a	n/a	n/a	n/a	n/a	n/a	n/a	2000	0	BLOCKED	n/a	n/a	+	0	irritable	At this moment	3	4	9	232	NONE	n/a	0	843.716392630928	-0.0141266066801661	-2.13491992419271e-05	10.9608397682135	718.757802746567	0.264411990776326	n/a	n/a	n/a	n/a	778.380355276907	4	4	0	1	0	1	1
193.57347697556	2.51868695187568	punish_vlpfc	196.092163927436	37	4	7	10	0	0	0	0	250	250	250	750	2000	0	BLOCKED	0.25	1	4	-1	scared	At this moment	3	4	9	232	VLPFC	1457.44121146202	0	3536.64587216285	-2.35922704929262	0.000596980792019026	21.4185136890391	1246.43695380774	0.409684857801691	n/a	n/a	n/a	n/a	1163.58984375	1	1	0	0	1	0	0
197.092927696466	2.51878039562703	punish_vlpfc	199.611708092093	38	4	7	10	0	0	0	0	250	250	250	750	2000	0	BLOCKED	0.25	1	0	-1	enthusiastic	At this moment	3	4	9	232	VLPFC	307.723799109459	0.848938826466916	n/a	n/a	n/a	n/a	1371.23966942149	0	898.476627361453	0.490612403830675	-8.15790750809756e-05	18.6251418381294	1244.54650269024	1	2	0	0	1	0	0
200.595856888175	2.51872679781914	punish_vlpfc	203.114583685994	39	4	7	10	0	0	0	0	250	250	250	750	2000	0	BLOCKED	0.25	1	10	1	proud	At this moment	2	4	9	232	VLPFC	339.733336687088	0	13825.7663238904	-11.8217778514216	0.00270557663819832	29.1703697118185	1059.33832709114	0.295157571099154	n/a	n/a	n/a	n/a	1104.23009814613	1	3	0	0	1	0	0
204.098645738006	2.51878110086918	punish_vlpfc	206.617426838875	40	4	7	10	0	0	0	0	250	250	250	750	2000	0	BLOCKED	0.25	1	1	-1	distressed	At this moment	4	4	9	232	VLPFC	357.455528020859	0.621722846441948	n/a	n/a	n/a	n/a	1056.94719471947	0	1231.28207672499	-0.72261470429197	0.000361003811345732	20.8863265787587	923.710222905457	1	4	0	0	1	0	0
207.601565409064	2.51870916688441	punish_vlpfc	210.120274575949	41	4	7	10	0	0	0	0	250	250	250	750	2000	0	BLOCKED	0.25	-1	9	-1	upset	At this moment	5	4	9	232	VLPFC	422.83605825901	0.750312109862672	n/a	n/a	n/a	n/a	1337.885	0.23674096848578	757.479163373523	0.738873963119011	-0.000263414437369067	18.073653962902	1187.41490433031	2	5	0	0	1	0	0
211.121010135531	2.51896798801423	punish_vlpfc	213.639978123546	42	4	7	10	0	0	0	0	250	250	250	750	2000	0	BLOCKED	0.25	-1	9	-1	afraid	At this moment	4	4	9	232	VLPFC	390.043710589409	0	4371.05240039325	-2.79333304624749	0.000669248011709282	19.1082910172929	1491.45443196005	0.267486548808609	n/a	n/a	n/a	n/a	1449.23819517314	1	6	0	0	1	0	0
214.623923812032	2.5188406931162	punish_vlpfc	217.142764505148	43	4	7	10	0	0	0	0	250	250	250	750	2000	0	BLOCKED	0.25	1	4	-1	excited	At this moment	4	4	9	232	VLPFC	306.619401931763	0	5532.01818959831	-3.98859313750164	0.000898614011691246	16.7091954747912	1163.23720349563	0	898.489401241468	0.54955690325341	-0.000201228595917995	23.2326885878552	1191.809377402	0	7	0	0	1	0	0
218.126776838422	2.51871904015542	punish_vlpfc	220.645495878577	44	4	7	10	0	0	0	0	250	250	250	750	2000	0	BLOCKED	0.25	1	10	1	attentive	At this moment	4	4	9	232	VLPFC	273.346083879471	0.605493133583021	n/a	n/a	n/a	n/a	1022.0253164557	0	558.726959381164	0.525948151354898	-6.26082744076272e-05	14.8549678714425	951.806302843966	1	8	0	0	1	0	0
221.646373542905	6.02154209411145	panas_none	227.667915637016	45	5	8	10	n/a	n/a	n/a	n/a	n/a	n/a	n/a	n/a	2000	0	BLOCKED	n/a	n/a	+	0	hostile	At this moment	1	4	9	232	NONE	n/a	0.240948813982522	-4313.24151996005	5.08880028943113	-0.00122998445798131	13.6964860550466	907.09375	0	755.98565332646	0.0930458790561234	-7.03930850841812e-05	26.9867558697104	776.940814757879	2	1	0	1	0	0	1
228.652028466105	6.02148638045787	panas_none	234.673514846563	46	5	8	10	n/a	n/a	n/a	n/a	n/a	n/a	n/a	n/a	2000	0	BLOCKED	n/a	n/a	+	0	nervous	At this moment	2	4	9	232	NONE	n/a	0.15980024968789	-569.237309640403	1.42242394764386	-0.000291490538647115	10.9578263078246	1132.80089153046	0	614.207532989647	-0.142257577065948	0.000217947593791653	13.7633412873927	680.776325903151	4	2	0	1	0	0	1
235.657882970452	6.02155196738244	panas_none	241.679434937835	47	5	8	10	n/a	n/a	n/a	n/a	n/a	n/a	n/a	n/a	2000	0	BLOCKED	n/a	n/a	+	0	upset	At this moment	1	4	9	232	NONE	n/a	0	5621.18401490717	-3.465371293544	0.000801769798744598	20.3144111892705	1922.00124843945	0.229823212913144	2077.24863234001	-0.0586353401056382	3.12002676183661e-05	23.8555586039297	2055.54890219561	2	3	0	1	0	0	1
242.663306224108	5.38781340622901	panas_none	248.051119630337	48	5	8	10	n/a	n/a	n/a	n/a	n/a	n/a	n/a	n/a	2000	0	BLOCKED	n/a	n/a	+	0	active	At this moment	5	4	9	232	NONE	n/a	0	2573.33394358456	-0.911485792718555	0.000237760122024573	17.9593764542387	1720.29463171036	0	1343.99733905629	0.0922090744569935	0.000140428502329383	43.947667782416	1543.33820138355	2	4	0	1	0	0	1
249.035340007544	2.51864393281937	punish_rtpj	251.553983940363	49	3	9	10	750	250	250	250	0	0	0	0	2000	0	BLOCKED	0.25	1	3	-1	guilty	At this moment	1	4	9	232	RTPJ	874.432286262512	0.539325842696629	n/a	n/a	n/a	n/a	1611.54471544715	0.254419677171407	n/a	n/a	n/a	n/a	1331.54948453608	2	1	0	0	1	0	0
252.53815354073	2.51871551418307	punish_rtpj	255.056869054914	50	3	9	10	750	250	250	250	0	0	0	0	2000	0	BLOCKED	0.25	-1	8	-1	ashamed	At this moment	1	4	9	232	RTPJ	539.882776021957	0	1722.78660095258	0.0567527900717182	-2.62824878953694e-05	27.3895718071453	1725.23595505618	0.230591852421214	1338.90161912022	0.460314234289699	-0.000123482368362392	18.6455818786681	1612.55944055944	1	2	0	0	1	0	0
256.05972701776	2.51728988254069	punish_rtpj	258.577016900301	51	3	9	10	750	250	250	250	0	0	0	0	2000	0	BLOCKED	0.25	1	4	-1	enthusiastic	At this moment	2	4	9	232	RTPJ	371.366984248161	0	4149.80589504024	-2.23636734291457	0.000492175935534035	30.5129312509509	1649.95131086142	0.282090699461952	n/a	n/a	n/a	n/a	1553.08244111349	1	3	0	0	1	0	0
259.560461519599	2.51876558566096	punish_rtpj	262.07922710526	52	3	9	10	750	250	250	250	0	0	0	0	2000	0	BLOCKED	0.25	1	3	-1	interested	At this moment	5	4	9	232	RTPJ	340.066912531853	0	10036.0185897055	-7.74707338595861	0.00176049698420891	28.1854094440003	1605.34581772784	0	986.458950983508	0.654090518969124	-0.000126348546089324	15.9545619489384	1433.62720983859	0	4	0	0	1	0	0
263.06336884892	2.51871269309521	punish_rtpj	265.582081542015	53	3	9	10	750	250	250	250	0	0	0	0	2000	0	BLOCKED	0.25	1	7	1	alert	At this moment	3	4	9	232	RTPJ	523.118293166161	0.401997503121099	n/a	n/a	n/a	n/a	1398.83924843424	0	1046.90820197414	0.640658016863563	-0.000113780787871153	16.4459832594253	1493.29438893159	1	5	0	0	1	0	0
266.566140067935	2.51872679781911	punish_rtpj	269.084866865754	54	3	9	10	750	250	250	250	0	0	0	0	2000	0	BLOCKED	0.25	-1	9	-1	active	At this moment	5	4	9	232	RTPJ	840.798593521118	0	6918.32581557765	-4.41448246814362	0.000895381161383217	46.7757879739767	1643.7215980025	0.230591852421214	1334.25404348553	0.736735266821924	-0.000269255380304528	15.0868296534836	1694.61938061938	1	6	0	0	1	0	0
270.069213832736	2.51856459379195	punish_rtpj	272.587778426528	55	3	9	10	750	250	250	250	0	0	0	0	2000	0	BLOCKED	0.25	-1	9	-1	nervous	At this moment	5	4	9	232	RTPJ	440.882657408714	0	6993.14106692486	-4.73195040527308	0.00102688361560024	21.9054958019917	1623.84893882647	0	1047.41432144875	0.61349449815424	-0.00012623230899526	12.1486840130696	1459.78939277479	0	7	0	0	1	0	0
273.571870098591	2.51873913943768	punish_rtpj	276.090609238029	56	3	9	10	750	250	250	250	0	0	0	0	2000	0	BLOCKED	0.25	-1	0	1	jittery	At this moment	2	4	9	232	RTPJ	840.625810980797	0	17674.25880975	-15.1216016305681	0.00340116713133454	32.6951489307594	1090.03620474407	0	743.571781075535	0.953484914415115	-0.000277852153234222	18.3743978827914	1314.53420445811	0	8	0	0	1	0	0
277.091326814055	6.02165563690664	panas_none	283.112982450962	57	5	10	10	n/a	n/a	n/a	n/a	n/a	n/a	n/a	n/a	2000	0	BLOCKED	n/a	n/a	+	0	upset	At this moment	2	4	9	232	NONE	n/a	0	-696.124222895206	1.38967850290524	-0.000244339047741342	14.0578282541059	1131.5468164794	0.0192159877017679	396.154462168546	1.61399469371792	-0.000846814926508155	78.3772200580676	1046.18181818182	2	1	0	1	0	0	0
284.09712983644	6.02156783509253	panas_none	290.118697671533	58	5	10	10	n/a	n/a	n/a	n/a	n/a	n/a	n/a	n/a	2000	0	BLOCKED	n/a	n/a	+	0	guilty	At this moment	1	4	9	232	NONE	n/a	0.00873907615480649	889.43586943717	0.526513240353511	-0.000128287068669293	20.0354400105203	1423.17506297229	0.0714834742505765	1271.34926025539	0.377737833392812	-0.000228237227223871	33.8376800183795	1400.74006622517	4	2	0	1	0	0	0
291.102748087287	6.02190599513051	panas_none	297.124654082417	59	5	10	10	n/a	n/a	n/a	n/a	n/a	n/a	n/a	n/a	2000	0	BLOCKED	n/a	n/a	+	0	ashamed	At this moment	1	4	9	232	NONE	n/a	0.784019975031211	n/a	n/a	n/a	n/a	1714.33526011561	0	1854.17095329472	0.007805542270284	3.92290743827584e-05	17.1740691436495	1894.12067640277	2	3	0	1	0	0	0
298.10852536869	13.0439653785229	panas_none	311.152490747213	60	5	10	10	n/a	n/a	n/a	n/a	n/a	n/a	n/a	n/a	2000	0	BLOCKED	n/a	n/a	+	0	strong	At this moment	3	4	9	232	NONE	n/a	0	4006.35086241763	-2.38850689597306	0.000523405909533071	13.797022730544	1326.53058676654	0	813.001866701545	0.345898633636319	6.03038487029287e-05	27.7752576384402	1159.90776325903	3	4	0	1	0	0	0
312.153297535539	2.51868871521947	reward_vlpfc	314.671986250758	61	2	11	10	0	0	0	0	250	250	250	750	2000	0	BLOCKED	0.75	1	8	1	determined	At this moment	3	4	9	232	VLPFC	790.336946964264	0.465667915106117	n/a	n/a	n/a	n/a	993.205607476635	0.265180630284397	n/a	n/a	n/a	n/a	941.757322175732	2	1	1	0	0	0	0
315.656555719137	2.51834456062318	reward_vlpfc	318.17490027976	62	2	11	10	0	0	0	0	250	250	250	750	2000	0	BLOCKED	0.75	-1	4	1	distressed	At this moment	2	4	9	232	VLPFC	690.255703926086	0.449438202247191	n/a	n/a	n/a	n/a	1184.79591836735	0.468870099923136	n/a	n/a	n/a	n/a	1010.36758321274	2	2	1	0	0	0	0
319.159101968408	2.51860479223728	reward_vlpfc	321.677706760645	63	2	11	10	0	0	0	0	250	250	250	750	2000	0	BLOCKED	0.75	1	10	1	alert	At this moment	1	4	9	232	VLPFC	374.171702027321	0.711610486891386	n/a	n/a	n/a	n/a	1504.92640692641	0.302075326671791	n/a	n/a	n/a	n/a	1522.07158590308	2	3	1	0	0	0	0
322.678525537968	2.51873490786551	reward_vlpfc	325.197260445833	64	2	11	10	0	0	0	0	250	250	250	750	2000	0	BLOCKED	0.75	-1	7	-1	irritable	At this moment	5	4	9	232	VLPFC	624.447801351547	0	4358.48537564981	-2.80475810372355	0.000638561225959817	19.797436804825	1318.82771535581	0.353574173712529	n/a	n/a	n/a	n/a	1178.45897740785	1	4	1	0	0	0	0
326.198277041554	2.51856635677814	reward_vlpfc	328.716843398333	65	2	11	10	0	0	0	0	250	250	250	750	2000	0	BLOCKED	0.75	1	7	1	jittery	At this moment	4	4	9	232	VLPFC	306.994233965874	0.737827715355805	n/a	n/a	n/a	n/a	961.47619047619	0	582.229631240736	0.670776920740464	-0.000189839037271387	22.2374723028849	989.401998462721	1	5	1	0	0	0	0
329.700961516619	2.51868307340141	reward_vlpfc	332.21964459002	66	2	11	10	0	0	0	0	250	250	250	750	2000	0	BLOCKED	0.75	1	6	1	determined	At this moment	1	4	9	232	VLPFC	858.358228206635	0	3193.12430010538	-2.02071725761618	0.000456145261594903	12.1231421787532	985.52684144819	0.814757878554958	n/a	n/a	n/a	n/a	947.576763485477	1	6	1	0	0	0	0
333.203905518293	2.51861572325231	reward_vlpfc	335.722521241546	67	2	11	10	0	0	0	0	250	250	250	750	2000	0	BLOCKED	0.75	1	10	1	enthusiastic	At this moment	4	4	9	232	VLPFC	740.757196187973	0	4293.28903915529	-2.83078844072565	0.000573156958719597	20.633975578102	902.63670411985	0.402767102229055	n/a	n/a	n/a	n/a	1028.38481338481	1	7	1	0	0	0	0
336.706521585822	2.51880895757677	reward_vlpfc	339.225330543399	68	2	11	10	0	0	0	0	250	250	250	750	2000	0	BLOCKED	0.75	1	2	-1	nervous	At this moment	5	4	9	232	VLPFC	641.220394253731	0.822721598002497	n/a	n/a	n/a	n/a	824.295774647887	0	453.477908649245	0.551540648647406	-0.000190565879436102	16.1334188387542	757.69715603382	2	8	1	0	0	0	0
340.226150025964	6.02156889295583	panas_none	346.24771891892	69	5	12	10	n/a	n/a	n/a	n/a	n/a	n/a	n/a	n/a	2000	0	BLOCKED	n/a	n/a	+	0	proud	At this moment	2	4	9	232	NONE	n/a	0.0511860174781523	-952.20888200769	1.52036842264991	-0.000259351596294132	10.0489473876824	1075.04868421053	0	729.606390691905	0.05824277996486	-3.24181317066504e-05	49.5844678935597	752.70099923136	2	1	0	1	0	1	1
347.231761929631	6.02164329528807	panas_none	353.253405224919	70	5	12	10	n/a	n/a	n/a	n/a	n/a	n/a	n/a	n/a	2000	0	BLOCKED	n/a	n/a	+	0	afraid	At this moment	1	4	9	232	NONE	n/a	0.0299625468164794	-450.965945796092	1.33847646632976	-0.000296610996619601	22.6874018239004	1032.14157014157	0.0684089162182936	1595.98828597483	-1.10139446441475	0.00050036364431459	17.8774302266411	1094.2301980198	2	2	0	1	0	1	1
354.23764958024	6.02137565863131	panas_none	360.259025238872	71	5	12	10	n/a	n/a	n/a	n/a	n/a	n/a	n/a	n/a	2000	0	BLOCKED	n/a	n/a	+	0	alert	At this moment	3	4	9	232	NONE	n/a	0	1985.12744081411	-0.728530653676532	0.000144942795190816	11.7332966324865	1101.95131086142	0.229823212913144	1327.85048884677	-0.595658954739385	0.000292163962753676	15.018264875543	1082.43512974052	2	3	0	1	0	1	1
361.243316139579	5.97144681704043	panas_none	367.214762956619	72	5	12	10	n/a	n/a	n/a	n/a	n/a	n/a	n/a	n/a	2000	0	BLOCKED	n/a	n/a	+	0	attentive	At this moment	1	4	9	232	NONE	n/a	0	1752.91012410003	-0.203040539663392	1.60752196135553e-05	22.7217494162901	1398.21847690387	0.145272867025365	1096.6707020125	0.126049504460989	0.000109446967742497	17.3425796186104	1265.73920863309	2	4	0	1	0	1	1
368.198842992187	2.51876170682908	reward_rtpj	370.717604699016	73	1	13	10	750	250	250	250	0	0	0	0	2000	0	BLOCKED	0.75	1	3	-1	active	At this moment	4	4	9	232	RTPJ	606.796838879585	0.664169787765293	n/a	n/a	n/a	n/a	1196.38289962825	0.463489623366641	n/a	n/a	n/a	n/a	1056.25071633238	2	1	1	0	0	0	0
371.701659346342	2.5188780704737	reward_rtpj	374.220537416816	74	1	13	10	750	250	250	250	0	0	0	0	2000	0	BLOCKED	0.75	1	6	1	upset	At this moment	1	4	9	232	RTPJ	707.84460580349	0	9340.52174924056	-7.72032973955334	0.00180411514972812	22.2382556573827	1167.87765293383	0.435049961568025	n/a	n/a	n/a	n/a	1185.95238095238	1	2	1	0	0	0	0
375.204669287324	2.51883152508736	reward_rtpj	377.723500812411	75	1	13	10	750	250	250	250	0	0	0	0	2000	0	BLOCKED	0.75	-1	8	-1	guilty	At this moment	5	4	9	232	RTPJ	656.70558142662	0.515605493133583	n/a	n/a	n/a	n/a	1395.25515463918	0.257494235203689	n/a	n/a	n/a	n/a	1303.51345755694	2	3	1	0	0	0	0
378.707458842516	2.51871128261087	reward_rtpj	381.226170125127	76	1	13	10	750	250	250	250	0	0	0	0	2000	0	BLOCKED	0.75	-1	2	1	determined	At this moment	2	4	9	232	RTPJ	623.291569232941	0	3282.24182747447	-2.21770085425883	0.000577959538578779	11.8300476581659	1206.21722846442	0.782475019215988	n/a	n/a	n/a	n/a	1347.05653710247	1	4	1	0	0	0	0
382.210213135839	2.51879978966713	reward_rtpj	384.729012925506	77	1	13	10	750	250	250	250	0	0	0	0	2000	0	BLOCKED	0.75	1	8	1	active	At this moment	3	4	9	232	RTPJ	823.872259497643	0	7237.39159031131	-5.53875103097643	0.00121645909945916	20.2292040589705	1032.25593008739	0.858570330514988	n/a	n/a	n/a	n/a	935.266304347826	1	5	1	0	0	0	0
385.713187815189	2.518677431345	reward_rtpj	388.231865246534	78	1	13	10	750	250	250	250	0	0	0	0	2000	0	BLOCKED	0.75	1	9	1	distressed	At this moment	2	4	9	232	RTPJ	1191.02864098549	0.0187265917602996	6789.01145228271	-4.78116407833639	0.000933210013331775	14.12758797331	840.828244274809	0.960030745580323	n/a	n/a	n/a	n/a	735.923076923077	1	6	1	0	0	0	0
389.216013689995	2.51870951950548	reward_rtpj	391.7347232095	79	1	13	10	750	250	250	250	0	0	0	0	2000	0	BLOCKED	0.75	-1	4	1	scared	At this moment	5	4	9	232	RTPJ	890.45662522316	0	4620.95180105623	-3.69218517933947	0.000865249616878063	9.4073623171999	729.10986267166	0.857033051498847	n/a	n/a	n/a	n/a	783.763440860215	1	7	1	0	0	0	0
392.71877221477	2.51875641775132	reward_rtpj	395.237528632522	80	1	13	10	750	250	250	250	0	0	0	0	2000	0	BLOCKED	0.75	1	6	1	attentive	At this moment	1	4	9	232	RTPJ	1041.82287621498	0	2271.44830776644	-1.57044388382043	0.000404025817287168	10.8617811298802	777.876404494382	0.813220599538816	n/a	n/a	n/a	n/a	794.123456790123	1	8	1	0	0	0	0
396.221692943692	6.02163553762432	panas_none	402.243328481317	81	5	14	10	n/a	n/a	n/a	n/a	n/a	n/a	n/a	n/a	2000	0	BLOCKED	n/a	n/a	+	0	jittery	At this moment	2	4	9	232	NONE	n/a	0.538077403245943	n/a	n/a	n/a	n/a	1135.51891891892	0.0238278247501922	99.789027241882	1.41147578136221	-0.000593942041306327	15.6304650210448	825.971653543307	3	1	0	1	0	1	0
403.2273242414	6.02168984067441	panas_none	409.249014082074	82	5	14	10	n/a	n/a	n/a	n/a	n/a	n/a	n/a	n/a	2000	0	BLOCKED	n/a	n/a	+	0	upset	At this moment	1	4	9	232	NONE	n/a	0	3123.87509109299	-2.20668295473137	0.000572696107705861	18.5423573356263	1048.18601747815	0.229823212913144	1357.40249894338	-0.767207274312218	0.000418673747997057	50.5178105772237	1074.21856287425	2	2	0	1	0	1	0
410.233106106758	6.02159957063202	panas_none	416.25470567739	83	5	14	10	n/a	n/a	n/a	n/a	n/a	n/a	n/a	n/a	2000	0	BLOCKED	n/a	n/a	+	0	ashamed	At this moment	1	4	9	232	NONE	n/a	0.950062421972534	n/a	n/a	n/a	n/a	877.675	0.168332052267487	1335.85214698257	-0.517716364411896	0.000143028759435448	31.7936347252872	969.994454713493	4	3	0	1	0	1	0
417.238775134563	12.610355804801	panas_none	429.849130939364	84	5	14	10	n/a	n/a	n/a	n/a	n/a	n/a	n/a	n/a	2000	0	BLOCKED	n/a	n/a	+	0	scared	At this moment	3	4	9	232	NONE	n/a	0	2770.80365510526	-0.528182535119546	0.000148835483069748	10.5696202241635	2325.78152309613	0.302075326671791	n/a	n/a	n/a	n/a	1895.42621145374	4	4	0	1	0	1	0
430.849898587346	2.51868624663348	reward_rtpj	433.36858483398	85	1	15	10	750	250	250	250	0	0	0	0	2000	0	BLOCKED	0.75	1	6	1	active	At this moment	3	4	9	232	RTPJ	1023.62324106693	0	7423.44336103927	-4.84208680117173	0.00105823412153932	48.6080233269119	1978.20224719101	0.257494235203689	n/a	n/a	n/a	n/a	1609.00310559006	1	1	1	0	0	0	0
434.35281614244	2.51864252233503	reward_rtpj	436.871458664775	86	1	15	10	750	250	250	250	0	0	0	0	2000	0	BLOCKED	0.75	1	6	1	interested	At this moment	4	4	9	232	RTPJ	623.618093013763	0.480649188514357	n/a	n/a	n/a	n/a	1817.60817307692	0.267486548808609	n/a	n/a	n/a	n/a	1859.02518363064	2	2	1	0	0	0	0
437.855505907059	2.51870387756821	reward_rtpj	440.374209784627	87	1	15	10	750	250	250	250	0	0	0	0	2000	0	BLOCKED	0.75	-1	0	1	proud	At this moment	4	4	9	232	RTPJ	541.382809758186	0	12095.9699013477	-9.8079064940331	0.0022161930553766	22.3662018454005	1376.12983770287	0.572636433512683	n/a	n/a	n/a	n/a	1967.0845323741	1	3	1	0	0	0	0
441.358588487148	2.51854026329517	reward_rtpj	443.877128750443	88	1	15	10	750	250	250	250	0	0	0	0	2000	0	BLOCKED	0.75	-1	4	1	excited	At this moment	1	4	9	232	RTPJ	356.780971169472	0.936329588014981	n/a	n/a	n/a	n/a	1726.60784313725	0	1112.41617158952	0.613710787491767	-0.000152942853864202	10.9084060101972	1501.809377402	1	4	1	0	0	0	0
444.861316686869	2.51871904027462	reward_rtpj	447.380035727143	89	1	15	10	750	250	250	250	0	0	0	0	2000	0	BLOCKED	0.75	1	1	-1	enthusiastic	At this moment	3	4	9	232	RTPJ	473.480360746384	0	5079.41849873988	-3.41336950672763	0.000751543367091035	19.6671456844162	1265.39450686642	0.371252882398155	n/a	n/a	n/a	n/a	1251.4413202934	1	5	1	0	0	0	0
448.364064985991	2.51880825221536	reward_rtpj	450.882873238206	90	1	15	10	750	250	250	250	0	0	0	0	2000	0	BLOCKED	0.75	1	4	-1	determined	At this moment	3	4	9	232	RTPJ	724.144338846207	0	3074.05853885061	-1.57562920145447	0.00032297573692172	9.89483605234435	1206.88639200999	0.941583397386626	n/a	n/a	n/a	n/a	814.315789473684	1	6	1	0	0	0	0
451.866893329024	2.51882200443742	reward_rtpj	454.385715333462	91	1	15	10	750	250	250	250	0	0	0	0	2000	0	BLOCKED	0.75	1	7	1	proud	At this moment	1	4	9	232	RTPJ	340.329612493515	0	8514.21552264414	-6.68014464966103	0.00146336300936728	40.8746928174993	1016.30586766542	0.523443504996157	n/a	n/a	n/a	n/a	1201.72903225806	1	7	1	0	0	0	0
455.369860955954	2.51868518888949	reward_rtpj	457.888546144843	92	1	15	10	750	250	250	250	0	0	0	0	2000	0	BLOCKED	0.75	1	6	1	afraid	At this moment	3	4	9	232	RTPJ	557.974157333374	0	4503.60833258774	-3.19824955842152	0.000752063659491207	11.7694912514851	1143.84019975031	0.780169100691776	n/a	n/a	n/a	n/a	1098.56993006993	1	8	1	0	0	0	0
458.872808836222	6.02149519598487	panas_none	464.894304032207	93	5	16	10	n/a	n/a	n/a	n/a	n/a	n/a	n/a	n/a	2000	0	BLOCKED	n/a	n/a	+	0	scared	At this moment	1	4	9	232	NONE	n/a	0.200998751560549	1179.945628093	-0.606826424186071	0.000295130922569062	15.7827253888129	1168.465625	0	678.643070914721	0.472114069830699	-7.39777446352142e-05	88.3521206852447	1018.76940814758	2	1	0	1	0	1	0
465.878336111903	6.02161297011372	panas_none	471.899949082017	94	5	16	10	n/a	n/a	n/a	n/a	n/a	n/a	n/a	n/a	2000	0	BLOCKED	n/a	n/a	+	0	hostile	At this moment	1	4	9	232	NONE	n/a	0.118601747815231	1126.94341099316	-0.275212972631188	9.11801564806518e-05	12.681709069045	949.923512747875	0	1505.40294564157	-0.569578860920586	0.000155489873121641	15.5780578486043	1151.38201383551	2	2	0	1	0	1	0
472.900654669285	6.02174661195278	panas_none	478.922401281238	95	5	16	10	n/a	n/a	n/a	n/a	n/a	n/a	n/a	n/a	2000	0	BLOCKED	n/a	n/a	+	0	attentive	At this moment	3	4	9	232	NONE	n/a	0	901.874357646485	-0.136820771678418	2.96159082200735e-05	11.5299849536996	746.807740324594	0	701.473516698753	0.130332979148295	-3.90005635130573e-05	11.621007567508	778.428900845503	2	3	0	1	0	1	0
479.906480611563	13.9947156777382	panas_none	493.901196289301	96	5	16	10	n/a	n/a	n/a	n/a	n/a	n/a	n/a	n/a	2000	0	BLOCKED	n/a	n/a	+	0	nervous	At this moment	4	4	9	232	NONE	n/a	0	1771.92039489734	-0.40830305514457	0.000104333273027233	13.6651869101868	1379.95880149813	0.249039200614912	702.783988004628	0.780728691629748	-0.00025355464030916	17.4993823366633	1170.77379733879	4	4	0	1	0	1	0
