onset	duration	trial_type	offset	trial	block	blockCntr	frequency	amplitude_1	amplitude_2	amplitude_3	amplitude_4	amplitude_5	amplitude_6	amplitude_7	amplitude_8	transition	sham	mode	rewardFraction	guess	outcome	correct	word	when	answer	runNr	scanNr	subjectNr	target	reactionTime	outcomeEyeClosed	outcomePupilArea	outcomeDilation	guessEyeClosed	guessPupilArea	guessDilation	nrBlinks	trialInBlock	isReward	isPanas	isPunish	beforePanasReward	beforePanasVLPFC
20.3598205038309	2.5030739377737	reward_vlpfc	22.8628944416046	1	2	1	10	0	0	0	0	250	250	250	750	2000	0	BLOCKED	0.75	1	10	1	n/a	n/a	n/a	2	6	221	VLPFC	1092.89762580395	0.695380774032459	1820.01229508197	1.92561983471074	0.257494235203689	2233.6718426501	0.910788381742739	3	1	1	0	0	0	0
23.8470333811045	2.51878795707226	reward_vlpfc	26.3658213381767	2	2	1	10	0	0	0	0	250	250	250	750	2000	0	BLOCKED	0.75	1	1	-1	n/a	n/a	n/a	2	6	221	VLPFC	840.891147494316	0.421972534332085	2099.10151187905	1.93058568329718	0	1712.48654880861	0.423076923076923	1	2	1	0	0	0	0
27.3664846104383	2.51870262384415	reward_vlpfc	29.8851872342825	3	2	1	10	0	0	0	0	250	250	250	750	2000	0	BLOCKED	0.75	1	10	1	n/a	n/a	n/a	2	6	221	VLPFC	691.197518706322	0.419475655430712	1754	1.31385281385281	0	1671.53881629516	0.451538461538462	1	3	1	0	0	0	0
30.8862426165342	2.51854535663128	reward_vlpfc	33.4047879731655	4	2	1	10	0	0	0	0	250	250	250	750	2000	0	BLOCKED	0.75	-1	0	1	n/a	n/a	n/a	2	6	221	VLPFC	423.700580358505	0.431960049937578	1764.45494505495	1.83002207505519	0	1624.10146041507	0.572307692307692	1	4	1	0	0	0	0
34.405632843256	2.51868675589562	reward_vlpfc	36.9243195991516	5	2	1	10	0	0	0	0	250	250	250	750	2000	0	BLOCKED	0.75	1	10	1	n/a	n/a	n/a	2	6	221	VLPFC	524.835689306259	0.418227215980025	1834.66094420601	1.73706896551724	0	1870.02382782475	0.393076923076923	2	5	1	0	0	0	0
37.9251404913664	2.51881334543229	reward_vlpfc	40.4439538367987	6	2	1	10	0	0	0	0	250	250	250	750	2000	0	BLOCKED	0.75	-1	3	1	n/a	n/a	n/a	2	6	221	VLPFC	640.813148617744	0.434456928838951	1774.95364238411	1.5609756097561	0	1603.29823212913	0.374615384615385	1	6	1	0	0	0	0
41.444917186141	2.51842476165295	reward_vlpfc	43.963341947794	7	2	1	10	0	0	0	0	250	250	250	750	2000	0	BLOCKED	0.75	1	4	-1	n/a	n/a	n/a	2	6	221	VLPFC	556.733060836792	0.488139825218477	1900.48780487805	2.06127450980392	0	1436.51498847041	0.550769230769231	1	7	1	0	0	0	0
44.9642520518303	2.53531757926941	reward_vlpfc	47.4995696310997	8	2	1	10	0	0	0	0	250	250	250	750	2000	0	BLOCKED	0.75	1	9	1	n/a	n/a	n/a	2	6	221	VLPFC	139.803782820702	0.471910112359551	1700.25768321513	1.25	0	1727.30053804766	0.502307692307692	1	8	1	0	0	0	0
48.5007791069746	6.02116935527324	panas_none	54.5219484622478	9	5	2	n/a	n/a	n/a	n/a	n/a	n/a	n/a	n/a	n/a	n/a	n/a	n/a	n/a	n/a	n/a	n/a	nervous	At this moment	2	2	6	221	NONE	n/a	0.649188514357054	1225.07829181495	2.03214285714286	0.230591852421214	1277.95604395604	-0.0660660660660661	6	1	0	1	0	1	1
55.522757717967	6.02161576807499	panas_none	61.544373486042	10	5	2	n/a	n/a	n/a	n/a	n/a	n/a	n/a	n/a	n/a	n/a	n/a	n/a	n/a	n/a	n/a	n/a	determined	At this moment	3	2	6	221	NONE	n/a	0	1569.18601747815	-0.16625	0.230591852421214	1518.70629370629	0.0820820820820821	3	2	0	1	0	1	1
62.5283505744934	6.02170427501202	panas_none	68.5500548495054	11	5	2	n/a	n/a	n/a	n/a	n/a	n/a	n/a	n/a	n/a	n/a	n/a	n/a	n/a	n/a	n/a	n/a	enthusiastic	At this moment	3	2	6	221	NONE	n/a	0	1321.63171036205	-0.09375	0.265949269792467	1199.61884816754	0.536764705882353	5	3	0	1	0	1	1
69.5342505602837	9.67441789126396	panas_none	79.2086684515476	12	5	2	n/a	n/a	n/a	n/a	n/a	n/a	n/a	n/a	n/a	n/a	n/a	n/a	n/a	n/a	n/a	n/a	n/a	n/a	n/a	2	6	221	NONE	n/a	0	1871.96504369538	0.27625	0.283627978478094	1378.26824034335	0.893433799784715	5	4	0	1	0	1	1
80.1928391265869	2.51895650792122	reward_rtpj	82.7117956345081	13	1	3	10	750	250	250	250	0	0	0	0	2000	0	BLOCKED	0.75	-1	3	1	n/a	n/a	n/a	2	6	221	RTPJ	590.101550221443	0.438202247191011	1664.61777777778	1.45982142857143	0.23674096848578	1629.01007049345	1.12411705348133	2	1	1	0	0	0	0
83.6955992352962	2.51869275057317	reward_rtpj	86.2142919858694	14	1	3	10	750	250	250	250	0	0	0	0	2000	0	BLOCKED	0.75	-1	0	1	n/a	n/a	n/a	2	6	221	RTPJ	840.919709444046	0.423220973782772	1584.76406926407	1.4195652173913	0	1551.56110684089	0.446923076923077	1	2	1	0	0	0	0
87.1985814927816	2.51870967590808	reward_rtpj	89.7172911686897	15	1	3	10	750	250	250	250	0	0	0	0	2000	0	BLOCKED	0.75	-1	7	-1	n/a	n/a	n/a	2	6	221	RTPJ	642.167902588844	0.465667915106117	1809.8691588785	1.90845070422535	0	1437.48501152959	0.481538461538462	1	3	1	0	0	0	0
90.7013620532751	2.53543182694912	reward_rtpj	93.2367938802242	16	1	3	10	750	250	250	250	0	0	0	0	2000	0	BLOCKED	0.75	1	9	1	n/a	n/a	n/a	2	6	221	RTPJ	640.865688562393	0.433208489388265	1667.88325991189	1.44911504424779	0.289008455034589	1560.82054054054	0.971830985915493	2	4	1	0	0	0	0
94.2375283811092	2.53548295652865	reward_rtpj	96.7730113376379	17	1	3	10	750	250	250	250	0	0	0	0	2000	0	BLOCKED	0.75	-1	2	1	n/a	n/a	n/a	2	6	221	RTPJ	740.178826212883	0.470661672908864	1681.28301886792	1.77488151658768	0	1561.57571099155	0.476923076923077	1	5	1	0	0	0	0
97.7569940679073	2.51880523514748	reward_rtpj	100.275799303055	18	1	3	10	750	250	250	250	0	0	0	0	2000	0	BLOCKED	0.75	-1	9	-1	n/a	n/a	n/a	2	6	221	RTPJ	907.278329968452	0.468164794007491	1927.05399061033	2.05188679245283	0.271329746348962	1597.67405063291	1.00317124735729	2	6	1	0	0	0	0
101.276627600193	2.51865678346157	reward_rtpj	103.795284383655	19	1	3	10	750	250	250	250	0	0	0	0	2000	0	BLOCKED	0.75	-1	0	1	n/a	n/a	n/a	2	6	221	RTPJ	1457.38536691666	0.440699126092385	1588.13839285714	1.03587443946188	0.268255188316679	1547.99369747899	0.934736842105263	2	7	1	0	0	0	0
104.796132779956	2.53543112182616	reward_rtpj	107.331563901782	20	1	3	10	750	250	250	250	0	0	0	0	2000	0	BLOCKED	0.75	1	6	1	n/a	n/a	n/a	2	6	221	RTPJ	620.723858952522	0.772784019975031	1629.99450549451	1.68715083798883	0	1576.24519600307	0.473076923076923	2	8	1	0	0	0	0
108.315795932055	6.0215124515295	panas_none	114.337308383584	21	5	4	n/a	n/a	n/a	n/a	n/a	n/a	n/a	n/a	n/a	n/a	n/a	n/a	n/a	n/a	n/a	n/a	afraid	At this moment	1	2	6	221	NONE	n/a	0.488139825218477	1363.99756097561	1.42156862745098	0.24750192159877	1313.38508682329	-0.182190378710338	5	1	0	1	0	1	0
115.321422287226	6.02152655613422	panas_none	121.34294884336	22	5	4	n/a	n/a	n/a	n/a	n/a	n/a	n/a	n/a	n/a	n/a	n/a	n/a	n/a	n/a	n/a	n/a	alert	At this moment	4	2	6	221	NONE	n/a	0.566791510611735	1389.40922190202	-0.0491329479768786	0.232897770945427	1074.19238476954	0.387939698492462	5	2	0	1	0	1	0
122.343832148671	6.02149164700508	panas_none	128.365323795676	23	5	4	n/a	n/a	n/a	n/a	n/a	n/a	n/a	n/a	n/a	n/a	n/a	n/a	n/a	n/a	n/a	n/a	hostile	At this moment	1	2	6	221	NONE	n/a	0.0986267166042447	1627.79085872576	1.15395284327323	0.33358954650269	1740.2029988466	0.490173410404624	6	3	0	1	0	1	0
129.349402790308	5.52119809353351	panas_none	134.870600883842	24	5	4	n/a	n/a	n/a	n/a	n/a	n/a	n/a	n/a	n/a	n/a	n/a	n/a	n/a	n/a	n/a	n/a	n/a	n/a	n/a	2	6	221	NONE	n/a	0.460674157303371	2130.64351851852	0.288372093023256	0.281322059953882	1806.72513368984	1.65236051502146	4	4	0	1	0	1	0
135.854690456986	2.51876397907733	punish_vlpfc	138.373454436064	25	4	5	10	0	0	0	0	250	250	250	750	2000	0	BLOCKED	0.25	1	1	-1	n/a	n/a	n/a	2	6	221	VLPFC	491.173822760582	0.514357053682896	1977.30334190231	1.95336787564767	0.192159877017679	1443.26546146527	0.426666666666667	2	1	0	0	1	0	0
139.35749005878	2.51878654646873	punish_vlpfc	141.876276605248	26	4	5	10	0	0	0	0	250	250	250	750	2000	0	BLOCKED	0.25	1	4	-1	n/a	n/a	n/a	2	6	221	VLPFC	890.712741017342	0.519350811485643	1704.2	1.49214659685864	0.345119139123751	1604.30281690141	0.877647058823529	2	2	0	0	1	0	0
142.869452057958	2.50970207750797	punish_vlpfc	145.379154135466	27	4	5	10	0	0	0	0	250	250	250	750	2000	0	BLOCKED	0.25	-1	4	1	n/a	n/a	n/a	2	6	221	VLPFC	548.667654752731	0.424469413233458	1605.94577006508	1.33115468409586	0	1767.66333589547	0.283846153846154	1	3	0	0	1	0	0
146.38002897799	2.51863492131233	punish_vlpfc	148.898663899302	28	4	5	10	0	0	0	0	250	250	250	750	2000	0	BLOCKED	0.25	-1	0	1	n/a	n/a	n/a	2	6	221	VLPFC	1023.56432914734	0.440699126092385	1659.421875	1.45515695067265	0.271329746348962	1712.05274261603	1.05185185185185	2	4	0	0	1	0	0
149.907716985464	2.51045244610307	punish_vlpfc	152.418169431567	29	4	5	10	0	0	0	0	250	250	250	750	2000	0	BLOCKED	0.25	1	1	-1	n/a	n/a	n/a	2	6	221	VLPFC	648.812615394592	0.551810237203496	1724.63788300836	1.67977528089888	0	1607.39431206764	0.326153846153846	1	5	0	0	1	0	0
153.418937783957	2.5190178631544	punish_vlpfc	155.937955647111	30	4	5	10	0	0	0	0	250	250	250	750	2000	0	BLOCKED	0.25	-1	10	-1	n/a	n/a	n/a	2	6	221	VLPFC	573.915376782417	0.440699126092385	1891.97767857143	1.87415730337079	0	1611.88931591084	0.442307692307692	1	6	0	0	1	0	0
156.921965176225	2.51857814991473	punish_vlpfc	159.440543326139	31	4	5	10	0	0	0	0	250	250	250	750	2000	0	BLOCKED	0.25	1	0	-1	n/a	n/a	n/a	2	6	221	VLPFC	690.242279529572	0.470661672908864	1773.51650943396	1.77014218009479	0.30130668716372	1476.1804180418	0.905077262693157	2	7	0	0	1	0	0
160.447923950315	2.5121495914459	punish_vlpfc	162.96007354176	32	4	5	10	0	0	0	0	250	250	250	750	2000	0	BLOCKED	0.25	1	2	-1	n/a	n/a	n/a	2	6	221	VLPFC	817.803909182549	0.747815230961298	1624.81683168317	2.12	0	1411.15065334358	0.43	1	8	0	0	1	0	0
163.960894433856	6.02166725027561	panas_none	169.982561684132	33	5	6	n/a	n/a	n/a	n/a	n/a	n/a	n/a	n/a	n/a	n/a	n/a	n/a	n/a	n/a	n/a	n/a	irritable	At this moment	2	2	6	221	NONE	n/a	0.504369538077403	1261.6120906801	1.34177215189873	0.230591852421214	1321.15384615385	-0.142142142142142	5	1	0	1	0	0	1
170.983315579057	6.03821767675876	panas_none	177.021533255816	34	5	6	n/a	n/a	n/a	n/a	n/a	n/a	n/a	n/a	n/a	n/a	n/a	n/a	n/a	n/a	n/a	n/a	nervous	At this moment	2	2	6	221	NONE	n/a	0.398252184769039	1269.53526970954	1.22916666666667	0	1075.37279016141	-0.153076923076923	4	2	0	1	0	0	1
178.022298786998	6.02163798308374	panas_none	184.043936770082	35	5	6	n/a	n/a	n/a	n/a	n/a	n/a	n/a	n/a	n/a	n/a	n/a	n/a	n/a	n/a	n/a	n/a	scared	At this moment	2	2	6	221	NONE	n/a	0	1311.80149812734	-0.0075	0.240584166026134	1421.11133603239	0.424949290060852	2	3	0	1	0	0	1
185.028203356862	5.45434122538566	panas_none	190.482544582248	36	5	6	n/a	n/a	n/a	n/a	n/a	n/a	n/a	n/a	n/a	n/a	n/a	n/a	n/a	n/a	n/a	n/a	n/a	n/a	n/a	2	6	221	NONE	n/a	0.048689138576779	1474.57480314961	0.684210526315789	0.40814757878555	999.571428571429	0.85006518904824	4	4	0	1	0	0	1
191.474261963963	2.51111289775372	reward_rtpj	193.985374861717	37	1	7	10	750	250	250	250	0	0	0	0	2000	0	BLOCKED	0.75	1	3	-1	n/a	n/a	n/a	2	6	221	RTPJ	499.074909567833	0.398252184769039	1782.65352697095	1.41995841995842	0.262874711760184	1592.20333680918	1.15882967607106	2	1	1	0	0	0	0
194.969456677318	2.51883450245856	reward_rtpj	197.488291179776	38	1	7	10	750	250	250	250	0	0	0	0	2000	0	BLOCKED	0.75	-1	4	1	n/a	n/a	n/a	2	6	221	RTPJ	523.80886900425	0.742821473158552	1420.95145631068	2.2843137254902	0	1279.9900076864	0.390769230769231	2	2	1	0	0	0	0
198.475373059869	2.53271597158908	reward_rtpj	201.008089031458	39	1	7	10	750	250	250	250	0	0	0	0	2000	0	BLOCKED	0.75	-1	2	1	n/a	n/a	n/a	2	6	221	RTPJ	970.996907949448	0.51685393258427	1274.6330749354	1.36103896103896	0	1210.63873943121	0.17	2	3	1	0	0	0	0
202.008607378364	2.51858026564119	reward_rtpj	204.527187644005	40	1	7	10	750	250	250	250	0	0	0	0	2000	0	BLOCKED	0.75	1	8	1	n/a	n/a	n/a	2	6	221	RTPJ	1157.99070429802	0.504369538077403	1309.57430730479	1.10886075949367	0	1150.28055342045	0.311538461538462	1	4	1	0	0	0	0
205.528019467235	2.53549282979967	reward_rtpj	208.063512297034	41	1	7	10	750	250	250	250	0	0	0	0	2000	0	BLOCKED	0.75	1	2	-1	n/a	n/a	n/a	2	6	221	RTPJ	1190.63632893562	0.885143570536829	1282.14130434783	0.561797752808989	0	1114.00691775557	0.127692307692308	5	5	1	0	0	0	0
209.064222114682	2.53546708869933	reward_rtpj	211.599689203382	42	1	7	10	750	250	250	250	0	0	0	0	2000	0	BLOCKED	0.75	-1	3	1	n/a	n/a	n/a	2	6	221	RTPJ	905.191190719604	0.761548064918851	1253.46073298429	0.361702127659574	0.0184473481936972	982.51057165231	0.287617554858934	3	6	1	0	0	0	0
212.583934280634	2.51859965956208	reward_rtpj	215.102533940196	43	1	7	10	750	250	250	250	0	0	0	0	2000	0	BLOCKED	0.75	-1	2	1	n/a	n/a	n/a	2	6	221	RTPJ	1457.69038057327	0.474406991260924	1004.64845605701	0.976076555023923	0.549577248270561	976.622866894198	0.683219178082192	4	7	1	0	0	0	0
216.086687689662	2.51863033711911	reward_rtpj	218.605318026781	44	1	7	10	750	250	250	250	0	0	0	0	2000	0	BLOCKED	0.75	-1	0	1	n/a	n/a	n/a	2	6	221	RTPJ	858.07840013504	0.465667915106117	1301.58177570093	1.26525821596244	0	1199.44350499616	0.255384615384615	1	8	1	0	0	0	0
219.606131161451	6.05492572295665	panas_none	225.661056884408	45	5	8	n/a	n/a	n/a	n/a	n/a	n/a	n/a	n/a	n/a	n/a	n/a	n/a	n/a	n/a	n/a	n/a	upset	At this moment	1	2	6	221	NONE	n/a	0.50561797752809	1324.74242424242	2.29187817258883	0.40891621829362	1150.28608582575	0.31331592689295	7	1	0	1	0	1	0
226.645275515318	6.02148318433763	panas_none	232.666758699656	46	5	8	n/a	n/a	n/a	n/a	n/a	n/a	n/a	n/a	n/a	n/a	n/a	n/a	n/a	n/a	n/a	n/a	distressed	At this moment	1	2	6	221	NONE	n/a	0.35705368289638	1899.81553398058	1.53307392996109	0.278247501921599	2114.10223642173	1.05763073639274	4	2	0	1	0	1	0
233.650916680455	6.02154806566239	panas_none	239.672464746118	47	5	8	n/a	n/a	n/a	n/a	n/a	n/a	n/a	n/a	n/a	n/a	n/a	n/a	n/a	n/a	n/a	n/a	nervous	At this moment	2	2	6	221	NONE	n/a	0.379525593008739	1572.4185110664	1.14516129032258	0.05380476556495	1734.79528838343	0.391869918699187	4	3	0	1	0	1	0
240.673255665898	10.5085444362163	panas_none	251.181800102115	48	5	8	n/a	n/a	n/a	n/a	n/a	n/a	n/a	n/a	n/a	n/a	n/a	n/a	n/a	n/a	n/a	n/a	n/a	n/a	n/a	2	6	221	NONE	n/a	0	1512.1822721598	-0.19125	0.282859338970023	1415.3536977492	0.911922663802363	3	4	0	1	0	1	0
252.165941157341	2.51871884405614	reward_vlpfc	254.684660001397	49	2	9	10	0	0	0	0	250	250	250	750	2000	0	BLOCKED	0.75	1	9	1	n/a	n/a	n/a	2	6	221	VLPFC	741.558263421059	0.450686641697878	1516.22045454545	1.5296803652968	0.255956956187548	1396.06714876033	1.04248704663212	2	1	1	0	0	0	0
255.668702676535	2.53539092350005	reward_vlpfc	258.204093600035	50	2	9	10	0	0	0	0	250	250	250	750	2000	0	BLOCKED	0.75	1	10	1	n/a	n/a	n/a	2	6	221	VLPFC	823.717999577522	0.856429463171036	1346.07826086957	0.292035398230089	0	1386.78478093774	0.183846153846154	2	2	1	0	0	0	0
259.188432825923	2.51870791292191	reward_vlpfc	261.707140738845	51	2	9	10	0	0	0	0	250	250	250	750	2000	0	BLOCKED	0.75	1	3	-1	n/a	n/a	n/a	2	6	221	VLPFC	690.22852742672	0.476903870162297	1734.3245823389	1.90167865707434	0.0707148347425058	1179.82795698925	0.540562913907285	8	3	1	0	0	0	0
262.707889344573	2.51871954929828	reward_vlpfc	265.226608893871	52	2	9	10	0	0	0	0	250	250	250	750	2000	0	BLOCKED	0.75	-1	1	1	n/a	n/a	n/a	2	6	221	VLPFC	606.684769868851	0.408239700374532	1571.86919831224	1.37923728813559	0	1515.4289008455	0.386153846153846	1	4	1	0	0	0	0
266.227429785967	2.5352756177187	reward_vlpfc	268.762705403686	53	2	9	10	0	0	0	0	250	250	250	750	2000	0	BLOCKED	0.75	-1	3	1	n/a	n/a	n/a	2	6	221	VLPFC	888.793447256088	0.506866416978777	1193.8582278481	1.11959287531807	0	1066.59800153728	0.04	1	5	1	0	0	0	0
269.763615507841	2.51875128495692	reward_vlpfc	272.282366792798	54	2	9	10	0	0	0	0	250	250	250	750	2000	0	BLOCKED	0.75	-1	10	-1	n/a	n/a	n/a	2	6	221	VLPFC	1224.03267490864	0.49063670411985	768.948529411765	0.381773399014778	0.641045349730976	615.62312633833	0.0416666666666667	3	6	1	0	0	0	0
273.266476112366	2.53539198136332	reward_vlpfc	275.801868093729	55	2	9	10	0	0	0	0	250	250	250	750	2000	0	BLOCKED	0.75	1	10	1	n/a	n/a	n/a	2	6	221	VLPFC	556.715782761574	0.489388264669164	1149.35452322738	0.71990171990172	0	1100.69946195234	0.176153846153846	1	7	1	0	0	0	0
276.785871628284	2.5187925411463	reward_vlpfc	279.304664169431	56	2	9	10	0	0	0	0	250	250	250	750	2000	0	BLOCKED	0.75	-1	4	1	n/a	n/a	n/a	2	6	221	VLPFC	690.626984596252	0.600499375780275	977.75	0.697160883280757	0	867.328209069946	0.172307692307692	1	8	1	0	0	0	0
280.307475936413	6.01968307507042	panas_none	286.327159011483	57	5	10	n/a	n/a	n/a	n/a	n/a	n/a	n/a	n/a	n/a	n/a	n/a	n/a	n/a	n/a	n/a	n/a	attentive	At this moment	4	2	6	221	NONE	n/a	0.48314606741573	1512.0652173913	1.71116504854369	0.448885472713297	1278.09344490934	1.22440392706872	7	1	0	1	0	1	1
287.311385752678	6.02160765790944	panas_none	293.332993410587	58	5	10	n/a	n/a	n/a	n/a	n/a	n/a	n/a	n/a	n/a	n/a	n/a	n/a	n/a	n/a	n/a	n/a	nervous	At this moment	2	2	6	221	NONE	n/a	0.0549313358302122	1272.67635402906	0.0529100529100529	0.262106072252114	1398.93958333333	0.327424400417101	4	2	0	1	0	1	1
294.333579812527	6.02166125571728	panas_none	300.355241068244	59	5	10	n/a	n/a	n/a	n/a	n/a	n/a	n/a	n/a	n/a	n/a	n/a	n/a	n/a	n/a	n/a	n/a	afraid	At this moment	1	2	6	221	NONE	n/a	0.419475655430712	1231.15913978495	1.03455723542117	0	1174.02382782475	-0.0569230769230769	2	3	0	1	0	1	1
301.339188184261	10.9590230959654	panas_none	312.298211280227	60	5	10	n/a	n/a	n/a	n/a	n/a	n/a	n/a	n/a	n/a	n/a	n/a	n/a	n/a	n/a	n/a	n/a	n/a	n/a	n/a	2	6	221	NONE	n/a	0.433208489388265	1140.88325991189	-0.0176600441501104	0.379707916986933	924.301115241636	0.7359900373599	10	4	0	1	0	1	1
313.304439199805	2.51323212528229	punish_vlpfc	315.817671325088	61	4	11	10	0	0	0	0	250	250	250	750	2000	0	BLOCKED	0.25	-1	6	-1	n/a	n/a	n/a	2	6	221	VLPFC	831.110260128975	0.480649188514357	2161.78125	1.52058111380145	0.262874711760184	2269.37747653806	1.10449320794148	2	1	0	0	1	0	0
316.821971135378	2.51521594798561	punish_vlpfc	319.337187083364	62	4	11	10	0	0	0	0	250	250	250	750	2000	0	BLOCKED	0.25	-1	10	-1	n/a	n/a	n/a	2	6	221	VLPFC	937.811426877975	0.499375780274657	1830.2319201995	1.73869346733668	0.291314373558801	1673.26681127983	1.00108813928183	2	2	0	0	1	0	0
320.338058752179	2.51863315820691	punish_vlpfc	322.856691910386	63	4	11	10	0	0	0	0	250	250	250	750	2000	0	BLOCKED	0.25	1	3	-1	n/a	n/a	n/a	2	6	221	VLPFC	439.905442357063	0.49812734082397	1940.23383084577	2.1525	0	1587.35511145273	0.542307692307692	1	3	0	0	1	0	0
323.857484945893	2.51880981922147	punish_vlpfc	326.376294765115	64	4	11	10	0	0	0	0	250	250	250	750	2000	0	BLOCKED	0.25	1	4	-1	n/a	n/a	n/a	2	6	221	VLPFC	1207.45509684086	0.533083645443196	1478.58556149733	1.46236559139785	0	1474.51960030746	0.105384615384615	2	4	0	0	1	0	0
327.377526455879	2.51854570925235	punish_vlpfc	329.896072165132	65	4	11	10	0	0	0	0	250	250	250	750	2000	0	BLOCKED	0.25	1	4	-1	n/a	n/a	n/a	2	6	221	VLPFC	1274.37261533737	0.458177278401998	1696.67050691244	1.54861111111111	0	1484.83243658724	0.346923076923077	1	5	0	0	1	0	0
330.880001297593	2.51862187445164	punish_vlpfc	333.398623172045	66	4	11	10	0	0	0	0	250	250	250	750	2000	0	BLOCKED	0.25	-1	6	-1	n/a	n/a	n/a	2	6	221	VLPFC	623.770468950272	0.803995006242197	1783.35031847134	3.16774193548387	0	1473.77094542659	0.403846153846154	1	6	0	0	1	0	0
334.405146937251	2.51298987734316	punish_vlpfc	336.918136814594	67	4	11	10	0	0	0	0	250	250	250	750	2000	0	BLOCKED	0.25	1	7	1	n/a	n/a	n/a	2	6	221	VLPFC	751.333508849144	0.459425717852684	1635.37413394919	1.26976744186047	0.237509607993851	1665.50201612903	1	2	7	0	0	1	0	0
337.902338872552	2.53528055429456	punish_vlpfc	340.437619426846	68	4	11	10	0	0	0	0	250	250	250	750	2000	0	BLOCKED	0.25	1	7	1	n/a	n/a	n/a	2	6	221	VLPFC	903.608998656273	0.474406991260924	1820.99049881235	1.89021479713604	0	1948.89162182936	0.296153846153846	1	8	0	0	1	0	0
341.43843326664	6.05503150820732	panas_none	347.493464774847	69	5	12	n/a	n/a	n/a	n/a	n/a	n/a	n/a	n/a	n/a	n/a	n/a	n/a	n/a	n/a	n/a	n/a	interested	At this moment	3	2	6	221	NONE	n/a	0.383270911360799	1325.48987854251	1.20081135902637	0.135280553420446	1585.29866666667	0.099644128113879	5	1	0	1	0	0	1
348.49415414083	6.02160413181781	panas_none	354.515758272648	70	5	12	n/a	n/a	n/a	n/a	n/a	n/a	n/a	n/a	n/a	n/a	n/a	n/a	n/a	n/a	n/a	n/a	ashamed	At this moment	2	2	6	221	NONE	n/a	0	1471.34581772784	-0.1925	0.264411990776326	1480.41379310345	0.512578616352201	3	2	0	1	0	0	1
355.516660266638	6.03922651362416	panas_none	361.555886780262	71	5	12	n/a	n/a	n/a	n/a	n/a	n/a	n/a	n/a	n/a	n/a	n/a	n/a	n/a	n/a	n/a	n/a	distressed	At this moment	1	2	6	221	NONE	n/a	0.440699126092385	733.176339285714	0.0961968680089485	0	842.893927747886	-0.132307692307692	8	3	0	1	0	0	1
362.555635717154	14.5118674978017	panas_none	377.067503214955	72	5	12	n/a	n/a	n/a	n/a	n/a	n/a	n/a	n/a	n/a	n/a	n/a	n/a	n/a	n/a	n/a	n/a	n/a	n/a	n/a	2	6	221	NONE	n/a	0	1216.24469413233	0.20625	0.356648731744812	881.446833930705	0.599520383693046	16	4	0	1	0	0	1
378.073655321836	2.51364362919327	punish_rtpj	380.58729895103	73	3	13	10	750	250	250	250	0	0	0	0	2000	0	BLOCKED	0.25	1	6	1	n/a	n/a	n/a	2	6	221	RTPJ	568.070751905441	0.541822721598002	1359.92643051771	1.31780821917808	0.263643351268255	1606.73903966597	0.986401673640167	2	1	0	0	1	0	0
381.57117660141	2.51881087720398	punish_rtpj	384.089987478614	74	3	13	10	750	250	250	250	0	0	0	0	2000	0	BLOCKED	0.25	1	2	-1	n/a	n/a	n/a	2	6	221	RTPJ	1290.3662596941	0.6729088639201	859.026717557252	0.383141762452107	0	916.449654112221	0.0346153846153846	1	2	0	0	1	0	0
385.090669439673	2.51867899835111	punish_rtpj	387.609348438025	75	3	13	10	750	250	250	250	0	0	0	0	2000	0	BLOCKED	0.25	-1	6	-1	n/a	n/a	n/a	2	6	221	RTPJ	491.208026647568	0.493133583021223	1409.78571428571	1.22084367245658	0	1314.06840891622	0.213846153846154	2	3	0	0	1	0	0
388.610125958204	2.53542160117627	punish_rtpj	391.145547559381	76	3	13	10	750	250	250	250	0	0	0	0	2000	0	BLOCKED	0.25	-1	9	-1	n/a	n/a	n/a	2	6	221	RTPJ	1057.41484570503	0.456928838951311	1445.16781609195	1.18706697459584	0	1375.64950038432	0.0130769230769231	1	4	0	0	1	0	0
392.136469789982	2.51180050075055	punish_rtpj	394.648270290732	77	3	13	10	750	250	250	250	0	0	0	0	2000	0	BLOCKED	0.25	1	4	-1	n/a	n/a	n/a	2	6	221	RTPJ	634.61167538166	0.535580524344569	1597.74193548387	1.87297297297297	0.299769408147579	1229.75631174533	0.644273127753304	2	5	0	0	1	0	0
395.657564566731	2.5103628815412	punish_rtpj	398.167927448273	78	3	13	10	750	250	250	250	0	0	0	0	2000	0	BLOCKED	0.25	1	6	1	n/a	n/a	n/a	2	6	221	RTPJ	635.017184853554	0.50936329588015	1336.01526717557	1.06923076923077	0.26902382782475	1482.7181913775	0.798735511064278	2	6	0	0	1	0	0
399.152066035152	2.5187096761465	punish_rtpj	401.670775711298	79	3	13	10	750	250	250	250	0	0	0	0	2000	0	BLOCKED	0.25	1	1	-1	n/a	n/a	n/a	2	6	221	RTPJ	1258.63073933125	0.544319600499376	955.805479452055	0.662952646239554	0.560338201383551	784.68006993007	0.436265709156194	3	7	0	0	1	0	0
402.654832138419	2.51877455747132	punish_rtpj	405.17360669589	80	3	13	10	750	250	250	250	0	0	0	0	2000	0	BLOCKED	0.25	1	4	-1	n/a	n/a	n/a	2	6	221	RTPJ	842.795278787613	0.720349563046192	1047.20089285714	0.548837209302326	0.774788624135281	870.317406143345	0.397058823529412	9	8	0	0	1	0	0
406.191285143971	6.02139785087104	panas_none	412.212682994843	81	5	14	n/a	n/a	n/a	n/a	n/a	n/a	n/a	n/a	n/a	n/a	n/a	n/a	n/a	n/a	n/a	n/a	guilty	At this moment	4	2	6	221	NONE	n/a	0.438202247191011	1150.02666666667	1.27232142857143	0.394312067640277	968.529187817259	0.477707006369427	9	1	0	1	0	0	0
413.205406745315	6.01294668185716	panas_none	419.218353427172	82	5	14	n/a	n/a	n/a	n/a	n/a	n/a	n/a	n/a	n/a	n/a	n/a	n/a	n/a	n/a	n/a	n/a	attentive	At this moment	4	2	6	221	NONE	n/a	0.378277153558052	1446.1124497992	1.08266129032258	0	1493.93082244427	-0.0969230769230769	2	2	0	1	0	0	0
420.206787593126	6.01727999079225	panas_none	426.224067583919	83	5	14	n/a	n/a	n/a	n/a	n/a	n/a	n/a	n/a	n/a	n/a	n/a	n/a	n/a	n/a	n/a	n/a	nervous	At this moment	2	2	6	221	NONE	n/a	0	644.661672908864	0.10875	0	651.52574942352	-0.0161538461538462	2	3	0	1	0	0	0
427.224795385122	7.55622035598753	panas_none	434.78101574111	84	5	14	n/a	n/a	n/a	n/a	n/a	n/a	n/a	n/a	n/a	n/a	n/a	n/a	n/a	n/a	n/a	n/a	n/a	n/a	n/a	2	6	221	NONE	n/a	0.328339575530587	1258.44609665428	0.173184357541899	0.495772482705611	954.362804878049	0.940366972477064	7	4	0	1	0	0	0
435.773567061901	2.51033361434941	punish_rtpj	438.28390067625	85	3	15	10	750	250	250	250	0	0	0	0	2000	0	BLOCKED	0.25	-1	9	-1	n/a	n/a	n/a	2	6	221	RTPJ	631.88629925251	0.455680399500624	2254.98623853211	1.70967741935484	0	2239.57494235204	0.860769230769231	2	1	0	0	1	0	0
439.267968387127	2.51874916911123	punish_rtpj	441.786717556238	86	3	15	10	750	250	250	250	0	0	0	0	2000	0	BLOCKED	0.25	1	3	-1	n/a	n/a	n/a	2	6	221	RTPJ	506.564139842987	0.464419475655431	1919.69463869464	1.63380281690141	0	1665.02229054573	0.423846153846154	1	2	0	0	1	0	0
442.771017289162	2.51868922424313	punish_rtpj	445.289706513405	87	3	15	10	750	250	250	250	0	0	0	0	2000	0	BLOCKED	0.25	1	7	1	n/a	n/a	n/a	2	6	221	RTPJ	524.008097410202	0.737827715355805	1300.78095238095	1.3252427184466	0	1502.60645657187	0.279230769230769	1	3	0	0	1	0	0
446.273734378576	2.51882216084005	punish_rtpj	448.792556539416	88	3	15	10	750	250	250	250	0	0	0	0	2000	0	BLOCKED	0.25	-1	6	-1	n/a	n/a	n/a	2	6	221	RTPJ	623.610381007195	0.440699126092385	1572.59598214286	1.69506726457399	0	1130.69254419677	0.191538461538462	1	4	0	0	1	0	0
449.793188076258	2.51864479458334	punish_rtpj	452.311832870841	89	3	15	10	750	250	250	250	0	0	0	0	2000	0	BLOCKED	0.25	1	2	-1	n/a	n/a	n/a	2	6	221	RTPJ	1010.68746542931	0.81023720349563	1347.03289473684	0.152317880794702	0	1192.79707916987	0.121538461538462	5	5	0	0	1	0	0
453.296167160153	2.51866277790066	punish_rtpj	455.814829938054	90	3	15	10	750	250	250	250	0	0	0	0	2000	0	BLOCKED	0.25	1	3	-1	n/a	n/a	n/a	2	6	221	RTPJ	539.915350675583	0.495630461922597	978.715346534653	1.18453865336658	0.840891621829362	819.31884057971	1.48	13	6	0	0	1	0	0
456.815598995566	2.5187389432192	punish_rtpj	459.334337938786	91	3	15	10	750	250	250	250	0	0	0	0	2000	0	BLOCKED	0.25	1	10	1	n/a	n/a	n/a	2	6	221	RTPJ	590.721450567245	0.52059925093633	943.958333333333	1.00787401574803	0	877.756341275942	0.251538461538462	1	7	0	0	1	0	0
460.335037178159	2.51890008914472	punish_rtpj	462.853937267303	92	3	15	10	750	250	250	250	0	0	0	0	2000	0	BLOCKED	0.25	-1	8	-1	n/a	n/a	n/a	2	6	221	RTPJ	640.599815368652	0.49063670411985	1254.71078431373	1.20792079207921	0	884.313604919293	0.260769230769231	1	8	0	0	1	0	0
463.856181673765	6.02019542741772	panas_none	469.876377101183	93	5	16	n/a	n/a	n/a	n/a	n/a	n/a	n/a	n/a	n/a	n/a	n/a	n/a	n/a	n/a	n/a	n/a	jittery	At this moment	1	2	6	221	NONE	n/a	0.49812734082397	1160.07960199005	0.73	0.29054573405073	1187.74647887324	0.257889009793254	6	1	0	1	0	0	0
470.860347489834	6.02158226954936	panas_none	476.881929759383	94	5	16	n/a	n/a	n/a	n/a	n/a	n/a	n/a	n/a	n/a	n/a	n/a	n/a	n/a	n/a	n/a	n/a	active	At this moment	3	2	6	221	NONE	n/a	0.456928838951311	1846.41609195402	0.505773672055427	0	1706.58262874712	0.193846153846154	3	2	0	1	0	0	0
477.866062704325	6.02150716221331	panas_none	483.887569866538	95	5	16	n/a	n/a	n/a	n/a	n/a	n/a	n/a	n/a	n/a	n/a	n/a	n/a	n/a	n/a	n/a	n/a	irritable	At this moment	2	2	6	221	NONE	n/a	0.460674157303371	1451.40046296296	1.38372093023256	0.235203689469639	1071.86934673367	0.798387096774194	5	3	0	1	0	0	0
484.871575869441	7.08923146808149	panas_none	491.960807337523	96	5	16	n/a	n/a	n/a	n/a	n/a	n/a	n/a	n/a	n/a	n/a	n/a	n/a	n/a	n/a	n/a	n/a	n/a	n/a	n/a	2	6	221	NONE	n/a	0.460674157303371	1207.04166666667	0.476744186046512	0.350499615680246	1205.36804733728	0.86563614744352	11	4	0	1	0	0	0
