onset	duration	trial_type	offset	trial	block	blockCntr	frequency	amplitude_1	amplitude_2	amplitude_3	amplitude_4	amplitude_5	amplitude_6	amplitude_7	amplitude_8	transition	sham	mode	rewardFraction	guess	outcome	correct	word	when	answer	runNr	scanNr	subjectNr	target	reactionTime	outcomeEyeClosed	outcomeParms_1	outcomeParms_2	outcomeParms_3	outcomeSigma	outcomePupilArea	guessEyeClosed	guessParms_1	guessParms_2	guessParms_3	guessSigma	guessPupilArea	nrBlinks	trialInBlock	isReward	isPanas	isPunish	beforePanasReward	beforePanasVLPFC
20.3598205038309	2.5030739377737	reward_vlpfc	22.8628944416046	1	2	1	10	0	0	0	0	250	250	250	750	2000	0	BLOCKED	0.75	1	10	1	strong	At this moment	4	2	7	221	VLPFC	1092.89762580395	0.796504369538077	n/a	n/a	n/a	n/a	1710.63190184049	0.297463489623367	n/a	n/a	n/a	n/a	2260.07221006565	3	1	1	0	0	0	0
23.8470333811045	2.51878795707226	reward_vlpfc	26.3658213381767	2	2	1	10	0	0	0	0	250	250	250	750	2000	0	BLOCKED	0.75	1	1	-1	interested	At this moment	2	2	7	221	VLPFC	840.891147494316	0.429463171036205	n/a	n/a	n/a	n/a	2099.00656455142	0	1515.39601856554	-0.120139285747222	0.000350328669463534	16.7381599636302	1715.96310530361	1	2	1	0	0	0	0
27.3664846104383	2.51870262384415	reward_vlpfc	29.8851872342825	3	2	1	10	0	0	0	0	250	250	250	750	2000	0	BLOCKED	0.75	1	10	1	afraid	At this moment	4	2	7	221	VLPFC	691.197518706322	0.426966292134831	n/a	n/a	n/a	n/a	1747.63834422658	0	1239.69056196548	0.536829483718857	-2.40312169398064e-05	24.0932514652303	1675.06840891622	1	3	1	0	0	0	0
30.8862426165342	2.51854535663128	reward_vlpfc	33.4047879731655	4	2	1	10	0	0	0	0	250	250	250	750	2000	0	BLOCKED	0.75	-1	0	1	guilty	At this moment	2	2	7	221	VLPFC	423.700580358505	0.439450686641698	n/a	n/a	n/a	n/a	1755.87305122494	0	1154.74701538632	0.524395920796296	3.23765965547017e-05	12.6220295596935	1628.57878554958	1	4	1	0	0	0	0
34.405632843256	2.51868675589562	reward_vlpfc	36.9243195991516	5	2	1	10	0	0	0	0	250	250	250	750	2000	0	BLOCKED	0.75	1	10	1	excited	At this moment	4	2	7	221	VLPFC	524.835689306259	0.425717852684145	n/a	n/a	n/a	n/a	1824.92173913043	0	1627.79935566798	0.20447617559352	8.29722534174893e-05	16.0219415323116	1873.11606456572	2	5	1	0	0	0	0
37.9251404913664	2.51881334543229	reward_vlpfc	40.4439538367987	6	2	1	10	0	0	0	0	250	250	250	750	2000	0	BLOCKED	0.75	-1	3	1	strong	At this moment	5	2	7	221	VLPFC	640.813148617744	0.440699126092385	n/a	n/a	n/a	n/a	1772.20089285714	0	1273.38910860363	0.401294450680876	-9.66444847797405e-06	21.6203395266722	1605.95311299001	1	6	1	0	0	0	0
41.444917186141	2.51842476165295	reward_vlpfc	43.963341947794	7	2	1	10	0	0	0	0	250	250	250	750	2000	0	BLOCKED	0.75	1	4	-1	distressed	At this moment	3	2	7	221	VLPFC	556.733060836792	0.495630461922597	n/a	n/a	n/a	n/a	1902.20544554455	0	1032.74712445598	0.320115009372806	0.00015760852449533	14.6730042875895	1440.90853189854	1	7	1	0	0	0	0
44.9642520518303	2.53531757926941	reward_vlpfc	47.4995696310997	8	2	1	10	0	0	0	0	250	250	250	750	2000	0	BLOCKED	0.75	1	9	1	proud	At this moment	3	2	7	221	VLPFC	139.803782820702	0.47940074906367	n/a	n/a	n/a	n/a	1689.18225419664	0	1327.96342308121	0.323018832008986	0.000149353443292385	20.6661206965546	1730.89777094543	1	8	1	0	0	0	0
48.5007791069746	6.02116935527324	panas_none	54.5219484622478	9	5	2	10	n/a	n/a	n/a	n/a	n/a	n/a	n/a	n/a	2000	0	BLOCKED	n/a	n/a	+	0	nervous	At this moment	2	2	7	221	NONE	n/a	0.65792759051186	n/a	n/a	n/a	n/a	1221.10583941606	0.235203689469639	1597.8520144276	-0.791008148841517	0.00041393193798491	115.649799162602	1272.38994974874	6	1	0	1	0	1	1
55.522757717967	6.02161576807499	panas_none	61.544373486042	10	5	2	10	n/a	n/a	n/a	n/a	n/a	n/a	n/a	n/a	2000	0	BLOCKED	n/a	n/a	+	0	determined	At this moment	3	2	7	221	NONE	n/a	0	3785.67914241433	-1.99986237863521	0.000444021152121655	16.6168487962491	1567.73533083645	0.229823212913144	1504.61251150729	-0.0699885107725367	0.000102025730884666	20.2182681457285	1519.6626746507	3	2	0	1	0	1	1
62.5283505744934	6.02170427501202	panas_none	68.5500548495054	11	5	2	10	n/a	n/a	n/a	n/a	n/a	n/a	n/a	n/a	2000	0	BLOCKED	n/a	n/a	+	0	enthusiastic	At this moment	3	2	7	221	NONE	n/a	0.0124843945068664	1836.9961342612	-0.430656623850722	8.70390384192042e-05	10.7530178908802	1321.22629582807	0.270561106840892	n/a	n/a	n/a	n/a	1201.80821917808	5	3	0	1	0	1	1
69.5342505602837	9.67441789126396	panas_none	79.2086684515476	12	5	2	10	n/a	n/a	n/a	n/a	n/a	n/a	n/a	n/a	2000	0	BLOCKED	n/a	n/a	+	0	hostile	At this moment	2	2	7	221	NONE	n/a	0	1334.30386335134	0.194785525730265	2.93035880257129e-05	13.773784238658	1874.01248439451	0.288239815526518	n/a	n/a	n/a	n/a	1385.35745140389	5	4	0	1	0	1	1
80.1928391265869	2.51895650792122	reward_rtpj	82.7117956345081	13	1	3	10	750	250	250	250	0	0	0	0	2000	0	BLOCKED	0.75	-1	3	1	strong	At this moment	2	2	7	221	RTPJ	590.101550221443	0.445692883895131	n/a	n/a	n/a	n/a	1656.73648648649	0.241352805534204	854.797254615057	1.03669065935419	-0.000179750775414564	21.2960729554372	1637.09422492401	2	1	1	0	0	0	0
83.6955992352962	2.51869275057317	reward_rtpj	86.2142919858694	14	1	3	10	750	250	250	250	0	0	0	0	2000	0	BLOCKED	0.75	-1	0	1	guilty	At this moment	5	2	7	221	RTPJ	840.919709444046	0.430711610486891	n/a	n/a	n/a	n/a	1576.96052631579	0	1110.29260563037	0.560252092162452	-3.72675304298929e-05	18.528929141952	1554.26825518832	1	2	1	0	0	0	0
87.1985814927816	2.51870967590808	reward_rtpj	89.7172911686897	15	1	3	10	750	250	250	250	0	0	0	0	2000	0	BLOCKED	0.75	-1	7	-1	scared	At this moment	2	2	7	221	RTPJ	642.167902588844	0.473158551810237	n/a	n/a	n/a	n/a	1811.75355450237	0	917.244773221336	0.74538006919896	-0.000126981866390789	18.7798428012459	1441.48654880861	1	3	1	0	0	0	0
90.7013620532751	2.53543182694912	reward_rtpj	93.2367938802242	16	1	3	10	750	250	250	250	0	0	0	0	2000	0	BLOCKED	0.75	1	9	1	irritable	At this moment	2	2	7	221	RTPJ	640.865688562393	0.440699126092385	n/a	n/a	n/a	n/a	1664.30580357143	0.293620292083013	n/a	n/a	n/a	n/a	1568.40152339499	2	4	1	0	0	0	0
94.2375283811092	2.53548295652865	reward_rtpj	96.7730113376379	17	1	3	10	750	250	250	250	0	0	0	0	2000	0	BLOCKED	0.75	-1	2	1	afraid	At this moment	5	2	7	221	RTPJ	740.178826212883	0.476903870162297	n/a	n/a	n/a	n/a	1673.88066825776	0	1212.94125038676	0.257567068066349	0.000154311016874828	12.7315670280566	1564.89008455035	1	5	1	0	0	0	0
97.7569940679073	2.51880523514748	reward_rtpj	100.275799303055	18	1	3	10	750	250	250	250	0	0	0	0	2000	0	BLOCKED	0.75	-1	9	-1	strong	At this moment	2	2	7	221	RTPJ	907.278329968452	0.47565543071161	n/a	n/a	n/a	n/a	1927.89285714286	0.275941583397387	n/a	n/a	n/a	n/a	1605.97346072187	2	6	1	0	0	0	0
101.276627600193	2.51865678346157	reward_rtpj	103.795284383655	19	1	3	10	750	250	250	250	0	0	0	0	2000	0	BLOCKED	0.75	-1	0	1	active	At this moment	1	2	7	221	RTPJ	1457.38536691666	0.449438202247191	n/a	n/a	n/a	n/a	1588.57142857143	0.273635664873174	n/a	n/a	n/a	n/a	1553.99153439153	2	7	1	0	0	0	0
104.796132779956	2.53543112182616	reward_rtpj	107.331563901782	20	1	3	10	750	250	250	250	0	0	0	0	2000	0	BLOCKED	0.75	1	6	1	scared	At this moment	3	2	7	221	RTPJ	620.723858952522	0.764044943820225	n/a	n/a	n/a	n/a	1624.26984126984	0	1168.93278683122	0.430380078970089	5.17043286171656e-05	18.6667973497648	1579.4473481937	2	8	1	0	0	0	0
108.315795932055	6.0215124515295	panas_none	114.337308383584	21	5	4	10	n/a	n/a	n/a	n/a	n/a	n/a	n/a	n/a	2000	0	BLOCKED	n/a	n/a	+	0	afraid	At this moment	1	2	7	221	NONE	n/a	0.496878901373283	n/a	n/a	n/a	n/a	1368.0794044665	0.252882398155265	n/a	n/a	n/a	n/a	1309.19650205761	5	1	0	1	0	1	0
115.321422287226	6.02152655613422	panas_none	121.34294884336	22	5	4	10	n/a	n/a	n/a	n/a	n/a	n/a	n/a	n/a	2000	0	BLOCKED	n/a	n/a	+	0	alert	At this moment	4	2	7	221	NONE	n/a	0.583021223470662	n/a	n/a	n/a	n/a	1390.47904191617	0.234435049961568	1244.32325636134	-0.514056909810306	0.00031742440807444	13.2520301523097	1071.64859437751	5	2	0	1	0	1	0
122.343832148671	6.02149164700508	panas_none	128.365323795676	23	5	4	10	n/a	n/a	n/a	n/a	n/a	n/a	n/a	n/a	2000	0	BLOCKED	n/a	n/a	+	0	hostile	At this moment	1	2	7	221	NONE	n/a	0.0873907615480649	-4034.59076385116	4.82469210569032	-0.00100430256609862	14.5539788026874	1629.51573187415	0.349730976172175	n/a	n/a	n/a	n/a	1738.08392434988	6	3	0	1	0	1	0
129.349402790308	5.52119809353351	panas_none	134.870600883842	24	5	4	10	n/a	n/a	n/a	n/a	n/a	n/a	n/a	n/a	2000	0	BLOCKED	n/a	n/a	+	0	upset	At this moment	3	2	7	221	NONE	n/a	0.466916354556804	n/a	n/a	n/a	n/a	2118.77283372365	0.285165257494235	n/a	n/a	n/a	n/a	1813.56989247312	4	4	0	1	0	1	0
135.854690456986	2.51876397907733	punish_vlpfc	138.373454436064	25	4	5	10	0	0	0	0	250	250	250	750	2000	0	BLOCKED	0.25	1	1	-1	distressed	At this moment	4	2	7	221	VLPFC	491.173822760582	0.519350811485643	n/a	n/a	n/a	n/a	1975.52987012987	0.200614911606457	1223.05545671909	0.0536942664212798	0.000299517767475787	14.3600663668774	1443.32788461538	2	1	0	0	1	0	0
139.35749005878	2.51878654646873	punish_vlpfc	141.876276605248	26	4	5	10	0	0	0	0	250	250	250	750	2000	0	BLOCKED	0.25	1	4	-1	afraid	At this moment	3	2	7	221	VLPFC	890.712741017342	0.525593008739076	n/a	n/a	n/a	n/a	1702.32894736842	0.348962336664105	n/a	n/a	n/a	n/a	1609.11688311688	2	2	0	0	1	0	0
142.869452057958	2.50970207750797	punish_vlpfc	145.379154135466	27	4	5	10	0	0	0	0	250	250	250	750	2000	0	BLOCKED	0.25	-1	4	1	interested	At this moment	2	2	7	221	VLPFC	548.667654752731	0.431960049937578	n/a	n/a	n/a	n/a	1592.8043956044	0	1554.74269211829	0.138196316493496	0.000113145964628574	15.5629754481949	1769.73020753267	1	3	0	0	1	0	0
146.38002897799	2.51863492131233	punish_vlpfc	148.898663899302	28	4	5	10	0	0	0	0	250	250	250	750	2000	0	BLOCKED	0.25	-1	0	1	strong	At this moment	2	2	7	221	VLPFC	1023.56432914734	0.446941323345818	n/a	n/a	n/a	n/a	1650.16930022573	0.275172943889316	n/a	n/a	n/a	n/a	1718.30646871686	2	4	0	0	1	0	0
149.907716985464	2.51045244610307	punish_vlpfc	152.418169431567	29	4	5	10	0	0	0	0	250	250	250	750	2000	0	BLOCKED	0.25	1	1	-1	guilty	At this moment	1	2	7	221	VLPFC	648.812615394592	0.558052434456929	n/a	n/a	n/a	n/a	1720.75141242938	0	1348.22122164185	0.228336875493764	7.75466845759428e-05	17.4456470350099	1609.51960030746	1	5	0	0	1	0	0
153.418937783957	2.5190178631544	punish_vlpfc	155.937955647111	30	4	5	10	0	0	0	0	250	250	250	750	2000	0	BLOCKED	0.25	-1	10	-1	nervous	At this moment	1	2	7	221	VLPFC	573.915376782417	0.446941323345818	n/a	n/a	n/a	n/a	1893.03386004515	0	1236.58004341863	0.393128560445019	5.14208766989356e-05	19.6565852208803	1614.92313604919	1	6	0	0	1	0	0
156.921965176225	2.51857814991473	punish_vlpfc	159.440543326139	31	4	5	10	0	0	0	0	250	250	250	750	2000	0	BLOCKED	0.25	1	0	-1	interested	At this moment	2	2	7	221	VLPFC	690.242279529572	0.476903870162297	n/a	n/a	n/a	n/a	1775.6491646778	0.305149884704074	n/a	n/a	n/a	n/a	1482.86615044248	2	7	0	0	1	0	0
160.447923950315	2.5121495914459	punish_vlpfc	162.96007354176	32	4	5	10	0	0	0	0	250	250	250	750	2000	0	BLOCKED	0.25	1	2	-1	enthusiastic	At this moment	1	2	7	221	VLPFC	817.803909182549	0.756554307116105	n/a	n/a	n/a	n/a	1610.36923076923	0	879.316130880651	0.757466081457969	-0.000125934648541251	36.3326819524106	1415.44350499616	1	8	0	0	1	0	0
163.960894433856	6.02166725027561	panas_none	169.982561684132	33	5	6	10	n/a	n/a	n/a	n/a	n/a	n/a	n/a	n/a	2000	0	BLOCKED	n/a	n/a	+	0	irritable	At this moment	2	2	7	221	NONE	n/a	0.510611735330836	n/a	n/a	n/a	n/a	1269.42091836735	0.234435049961568	1744.72530313902	-0.951338169911049	0.000412415895747976	48.088163236561	1317.40863453815	5	1	0	1	0	0	1
170.983315579057	6.03821767675876	panas_none	177.021533255816	34	5	6	10	n/a	n/a	n/a	n/a	n/a	n/a	n/a	n/a	2000	0	BLOCKED	n/a	n/a	+	0	nervous	At this moment	2	2	7	221	NONE	n/a	0.404494382022472	n/a	n/a	n/a	n/a	1276.68763102725	0	1463.12596649435	-0.868350151884495	0.00040407982433857	11.4987227692367	1074.12836279785	4	2	0	1	0	0	1
178.022298786998	6.02163798308374	panas_none	184.043936770082	35	5	6	10	n/a	n/a	n/a	n/a	n/a	n/a	n/a	n/a	2000	0	BLOCKED	n/a	n/a	+	0	scared	At this moment	2	2	7	221	NONE	n/a	0	1276.27677563644	0.00931511390632349	3.5820796839294e-06	11.6457499764077	1311.68039950062	0.244427363566487	1096.20893975164	0.789317345617352	-0.000389060858186326	36.8115152745869	1422.48118006104	2	3	0	1	0	0	1
185.028203356862	5.45434122538566	panas_none	190.482544582248	36	5	6	10	n/a	n/a	n/a	n/a	n/a	n/a	n/a	n/a	2000	0	BLOCKED	n/a	n/a	+	0	determined	At this moment	1	2	7	221	NONE	n/a	0.0387016229712859	-3599.06613619925	4.43362602624443	-0.000949457388918355	15.7681782537019	1475.65584415584	0.423520368946964	n/a	n/a	n/a	n/a	1002.332	4	4	0	1	0	0	1
191.474261963963	2.51111289775372	reward_rtpj	193.985374861717	37	1	7	10	750	250	250	250	0	0	0	0	2000	0	BLOCKED	0.75	1	3	-1	irritable	At this moment	1	2	7	221	RTPJ	499.074909567833	0.388264669163546	n/a	n/a	n/a	n/a	1785.84081632653	0.267486548808609	n/a	n/a	n/a	n/a	1601.60125918153	2	1	1	0	0	0	0
194.969456677318	2.51883450245856	reward_rtpj	197.488291179776	38	1	7	10	750	250	250	250	0	0	0	0	2000	0	BLOCKED	0.75	-1	4	1	active	At this moment	2	2	7	221	RTPJ	523.80886900425	0.762796504369538	n/a	n/a	n/a	n/a	1405.06842105263	0	820.601458056126	0.601062890318269	-6.29775017801254e-05	18.8648298126197	1283.04842428901	2	2	1	0	0	0	0
198.475373059869	2.53271597158908	reward_rtpj	201.008089031458	39	1	7	10	750	250	250	250	0	0	0	0	2000	0	BLOCKED	0.75	-1	2	1	enthusiastic	At this moment	3	2	7	221	RTPJ	970.996907949448	0.521847690387016	n/a	n/a	n/a	n/a	1270.07571801567	0	1123.81590888797	-0.00852729647848022	0.00011034718002356	20.1984073371572	1211.94850115296	2	3	1	0	0	0	0
202.008607378364	2.51858026564119	reward_rtpj	204.527187644005	40	1	7	10	750	250	250	250	0	0	0	0	2000	0	BLOCKED	0.75	1	8	1	hostile	At this moment	1	2	7	221	RTPJ	1157.99070429802	0.510611735330836	n/a	n/a	n/a	n/a	1305.20408163265	0	980.771766638553	-0.0105336828067777	0.000209786734293814	15.3538307848611	1152.78862413528	1	4	1	0	0	0	0
205.528019467235	2.53549282979967	reward_rtpj	208.063512297034	41	1	7	10	750	250	250	250	0	0	0	0	2000	0	BLOCKED	0.75	1	2	-1	determined	At this moment	1	2	7	221	RTPJ	1190.63632893562	0.905118601747815	n/a	n/a	n/a	n/a	1285.48684210526	0	925.210358196662	0.27917291816005	-5.50715743561998e-05	20.0434085152955	1115.29362029208	5	5	1	0	0	0	0
209.064222114682	2.53546708869933	reward_rtpj	211.599689203382	42	1	7	10	750	250	250	250	0	0	0	0	2000	0	BLOCKED	0.75	-1	3	1	guilty	At this moment	1	2	7	221	RTPJ	905.191190719604	1	n/a	n/a	n/a	n/a	n/a	1	n/a	n/a	n/a	n/a	n/a	3	6	1	0	0	0	0
212.583934280634	2.51859965956208	reward_rtpj	215.102533940196	43	1	7	10	750	250	250	250	0	0	0	0	2000	0	BLOCKED	0.75	-1	2	1	scared	At this moment	2	2	7	221	RTPJ	1457.69038057327	0.480649188514357	n/a	n/a	n/a	n/a	1004.72355769231	0.542659492697925	n/a	n/a	n/a	n/a	977.126050420168	4	7	1	0	0	0	0
216.086687689662	2.51863033711911	reward_rtpj	218.605318026781	44	1	7	10	750	250	250	250	0	0	0	0	2000	0	BLOCKED	0.75	-1	0	1	attentive	At this moment	1	2	7	221	RTPJ	858.07840013504	0.470661672908864	n/a	n/a	n/a	n/a	1297.06603773585	0	1128.60420100743	-0.170011873496661	0.000252244708009973	12.699129341114	1201.72636433513	1	8	1	0	0	0	0
219.606131161451	6.05492572295665	panas_none	225.661056884408	45	5	8	10	n/a	n/a	n/a	n/a	n/a	n/a	n/a	n/a	2000	0	BLOCKED	n/a	n/a	+	0	upset	At this moment	1	2	7	221	NONE	n/a	0.511860174781523	n/a	n/a	n/a	n/a	1337.93350383632	0.424289008455035	n/a	n/a	n/a	n/a	1146.53538050734	7	1	0	1	0	1	0
226.645275515318	6.02148318433763	panas_none	232.666758699656	46	5	8	10	n/a	n/a	n/a	n/a	n/a	n/a	n/a	n/a	2000	0	BLOCKED	n/a	n/a	+	0	distressed	At this moment	1	2	7	221	NONE	n/a	0.343320848938826	n/a	n/a	n/a	n/a	1903.90494296578	0.270561106840892	n/a	n/a	n/a	n/a	2115.24236037935	4	2	0	1	0	1	0
233.650916680455	6.02154806566239	panas_none	239.672464746118	47	5	8	10	n/a	n/a	n/a	n/a	n/a	n/a	n/a	n/a	2000	0	BLOCKED	n/a	n/a	+	0	nervous	At this moment	2	2	7	221	NONE	n/a	0.368289637952559	n/a	n/a	n/a	n/a	1574.04347826087	0.0468870099923136	1428.49955496634	0.856981526411453	-0.000484691141506812	17.7829522576254	1734.05967741935	4	3	0	1	0	1	0
240.673255665898	10.5085444362163	panas_none	251.181800102115	48	5	8	10	n/a	n/a	n/a	n/a	n/a	n/a	n/a	n/a	2000	0	BLOCKED	n/a	n/a	+	0	afraid	At this moment	1	2	7	221	NONE	n/a	0	3079.60076562233	-1.33503842625276	0.000276555501351867	10.2611353691989	1510.39325842697	0.286702536510377	n/a	n/a	n/a	n/a	1422.30172413793	3	4	0	1	0	1	0
252.165941157341	2.51871884405614	reward_vlpfc	254.684660001397	49	2	9	10	0	0	0	0	250	250	250	750	2000	0	BLOCKED	0.75	1	9	1	excited	At this moment	5	2	7	221	VLPFC	741.558263421059	0.458177278401998	n/a	n/a	n/a	n/a	1510.16589861751	0.260568793235972	n/a	n/a	n/a	n/a	1410.07068607069	2	1	1	0	0	0	0
255.668702676535	2.53539092350005	reward_vlpfc	258.204093600035	50	2	9	10	0	0	0	0	250	250	250	750	2000	0	BLOCKED	0.75	1	10	1	ashamed	At this moment	4	2	7	221	VLPFC	823.717999577522	0.873907615480649	n/a	n/a	n/a	n/a	1340.82178217822	0	1017.6082164297	1.00097459048028	-0.000556301801437172	30.1140124128484	1388.28132205995	2	2	1	0	0	0	0
259.188432825923	2.51870791292191	reward_vlpfc	261.707140738845	51	2	9	10	0	0	0	0	250	250	250	750	2000	0	BLOCKED	0.75	1	3	-1	inspired	At this moment	4	2	7	221	VLPFC	690.22852742672	0.481897627965044	n/a	n/a	n/a	n/a	1742.05301204819	0.0614911606456572	611.059621175047	0.790272060272263	-0.00014587402834143	13.2374458229206	1180.5085995086	8	3	1	0	0	0	0
262.707889344573	2.51871954929828	reward_vlpfc	265.226608893871	52	2	9	10	0	0	0	0	250	250	250	750	2000	0	BLOCKED	0.75	-1	1	1	attentive	At this moment	3	2	7	221	VLPFC	606.684769868851	0.413233458177278	n/a	n/a	n/a	n/a	1566.17446808511	0	1140.29486912438	0.559476712507175	-0.00011250325308336	15.3233510689757	1518.91852421214	1	4	1	0	0	0	0
266.227429785967	2.5352756177187	reward_vlpfc	268.762705403686	53	2	9	10	0	0	0	0	250	250	250	750	2000	0	BLOCKED	0.75	-1	3	1	strong	At this moment	2	2	7	221	VLPFC	888.793447256088	0.511860174781523	n/a	n/a	n/a	n/a	1195.0716112532	0	1097.11390624854	-0.175875966003021	0.000137709011198912	14.8080153996509	1066.9431206764	1	5	1	0	0	0	0
269.763615507841	2.51875128495692	reward_vlpfc	272.282366792798	54	2	9	10	0	0	0	0	250	250	250	750	2000	0	BLOCKED	0.75	-1	10	-1	determined	At this moment	5	2	7	221	VLPFC	1224.03267490864	0.49812734082397	n/a	n/a	n/a	n/a	761.019900497512	0.641045349730976	n/a	n/a	n/a	n/a	616.017130620985	3	6	1	0	0	0	0
273.266476112366	2.53539198136332	reward_vlpfc	275.801868093729	55	2	9	10	0	0	0	0	250	250	250	750	2000	0	BLOCKED	0.75	1	10	1	upset	At this moment	5	2	7	221	VLPFC	556.715782761574	0.49438202247191	n/a	n/a	n/a	n/a	1146.43456790123	0	979.431121360856	0.0571296076534965	8.55223441939848e-05	13.7852524019859	1102.04919292852	1	7	1	0	0	0	0
276.785871628284	2.5187925411463	reward_vlpfc	279.304664169431	56	2	9	10	0	0	0	0	250	250	250	750	2000	0	BLOCKED	0.75	-1	4	1	irritable	At this moment	5	2	7	221	VLPFC	690.626984596252	0.607990012484395	n/a	n/a	n/a	n/a	972.480891719745	0	731.476862307712	0.0475846440605975	0.000112813531425823	28.708738571722	868.968485780169	1	8	1	0	0	0	0
280.307475936413	6.01968307507042	panas_none	286.327159011483	57	5	10	10	n/a	n/a	n/a	n/a	n/a	n/a	n/a	n/a	2000	0	BLOCKED	n/a	n/a	+	0	attentive	At this moment	4	2	7	221	NONE	n/a	0.489388264669164	n/a	n/a	n/a	n/a	1514.88019559902	0.445810914681015	n/a	n/a	n/a	n/a	1280.28155339806	7	1	0	1	0	1	1
287.311385752678	6.02160765790944	panas_none	293.332993410587	58	5	10	10	n/a	n/a	n/a	n/a	n/a	n/a	n/a	n/a	2000	0	BLOCKED	n/a	n/a	+	0	nervous	At this moment	2	2	7	221	NONE	n/a	0.0711610486891386	1697.05667735643	-0.467164798596454	0.000125243159146888	10.6470582180611	1272.51478494624	0.255956956187548	n/a	n/a	n/a	n/a	1397.99586776859	4	2	0	1	0	1	1
294.333579812527	6.02166125571728	panas_none	300.355241068244	59	5	10	10	n/a	n/a	n/a	n/a	n/a	n/a	n/a	n/a	2000	0	BLOCKED	n/a	n/a	+	0	afraid	At this moment	1	2	7	221	NONE	n/a	0.425717852684145	n/a	n/a	n/a	n/a	1236.57608695652	0	1459.95795783923	-0.463437517807246	0.000140335317053788	17.1020366511197	1173.59877017679	2	3	0	1	0	1	1
301.339188184261	10.9590230959654	panas_none	312.298211280227	60	5	10	10	n/a	n/a	n/a	n/a	n/a	n/a	n/a	n/a	2000	0	BLOCKED	n/a	n/a	+	0	jittery	At this moment	3	2	7	221	NONE	n/a	0.449438202247191	n/a	n/a	n/a	n/a	1140.85487528345	0.383551114527287	n/a	n/a	n/a	n/a	928.785536159601	10	4	0	1	0	1	1
313.304439199805	2.51323212528229	punish_vlpfc	315.817671325088	61	4	11	10	0	0	0	0	250	250	250	750	2000	0	BLOCKED	0.25	-1	6	-1	attentive	At this moment	3	2	7	221	VLPFC	831.110260128975	0.48689138576779	n/a	n/a	n/a	n/a	2152.32603406326	0.266717909300538	n/a	n/a	n/a	n/a	2273.02306079665	2	1	0	0	1	0	0
316.821971135378	2.51521594798561	punish_vlpfc	319.337187083364	62	4	11	10	0	0	0	0	250	250	250	750	2000	0	BLOCKED	0.25	-1	10	-1	inspired	At this moment	5	2	7	221	VLPFC	937.811426877975	0.50561797752809	n/a	n/a	n/a	n/a	1827.69191919192	0.295157571099154	n/a	n/a	n/a	n/a	1680.41548527808	2	2	0	0	1	0	0
320.338058752179	2.51863315820691	punish_vlpfc	322.856691910386	63	4	11	10	0	0	0	0	250	250	250	750	2000	0	BLOCKED	0.25	1	3	-1	guilty	At this moment	2	2	7	221	VLPFC	439.905442357063	0.50561797752809	n/a	n/a	n/a	n/a	1940.7095959596	0	1127.7293174019	0.52635409667816	1.87420642704631e-05	15.341429481448	1591.70099923136	1	3	0	0	1	0	0
323.857484945893	2.51880981922147	punish_vlpfc	326.376294765115	64	4	11	10	0	0	0	0	250	250	250	750	2000	0	BLOCKED	0.25	1	4	-1	excited	At this moment	1	2	7	221	VLPFC	1207.45509684086	0.540574282147316	n/a	n/a	n/a	n/a	1477.61141304348	0	1386.17200498224	0.0613460312318326	4.2739621459996e-05	15.1985517813705	1475.34973097617	1	4	0	0	1	0	0
327.377526455879	2.51854570925235	punish_vlpfc	329.896072165132	65	4	11	10	0	0	0	0	250	250	250	750	2000	0	BLOCKED	0.25	1	4	-1	distressed	At this moment	3	2	7	221	VLPFC	1274.37261533737	0.464419475655431	n/a	n/a	n/a	n/a	1698.48717948718	0	1015.37439748796	0.773536473925091	-0.000215172792051071	26.0670806680828	1487.32436587241	1	5	0	0	1	0	0
330.880001297593	2.51862187445164	punish_vlpfc	333.398623172045	66	4	11	10	0	0	0	0	250	250	250	750	2000	0	BLOCKED	0.25	-1	6	-1	inspired	At this moment	1	2	7	221	VLPFC	623.770468950272	0.81023720349563	n/a	n/a	n/a	n/a	1778.17105263158	0	1125.21433983607	0.424654204290137	-1.01812080156021e-05	11.9112267775262	1476.99308224443	1	6	0	0	1	0	0
334.405146937251	2.51298987734316	punish_vlpfc	336.918136814594	67	4	11	10	0	0	0	0	250	250	250	750	2000	0	BLOCKED	0.25	1	7	1	guilty	At this moment	1	2	7	221	VLPFC	751.333508849144	0.465667915106117	n/a	n/a	n/a	n/a	1626.81074766355	0.241352805534204	1117.16407758262	0.632723912148525	-3.00839672449858e-05	34.536007670498	1671.80344478217	2	7	0	0	1	0	0
337.902338872552	2.53528055429456	punish_vlpfc	340.437619426846	68	4	11	10	0	0	0	0	250	250	250	750	2000	0	BLOCKED	0.25	1	7	1	alert	At this moment	4	2	7	221	VLPFC	903.608998656273	0.48314606741573	n/a	n/a	n/a	n/a	1811.06280193237	0	1630.53050508721	0.44242170450602	-6.4417702309324e-05	18.352019931693	1951.24289008455	1	8	0	0	1	0	0
341.43843326664	6.05503150820732	panas_none	347.493464774847	69	5	12	10	n/a	n/a	n/a	n/a	n/a	n/a	n/a	n/a	2000	0	BLOCKED	n/a	n/a	+	0	interested	At this moment	3	2	7	221	NONE	n/a	0.374531835205993	n/a	n/a	n/a	n/a	1327.84231536926	0.129900076863951	611.779746807947	2.37049945982292	-0.00127056776695473	46.2889254368587	1583.47526501767	5	1	0	1	0	0	1
348.49415414083	6.02160413181781	panas_none	354.515758272648	70	5	12	10	n/a	n/a	n/a	n/a	n/a	n/a	n/a	n/a	2000	0	BLOCKED	n/a	n/a	+	0	ashamed	At this moment	2	2	7	221	NONE	n/a	0	1740.02938822944	-0.0659158321892392	-2.94917143228499e-05	12.7544917735871	1470.01747815231	0.26902382782475	n/a	n/a	n/a	n/a	1479.92639327024	3	2	0	1	0	0	1
355.516660266638	6.03922651362416	panas_none	361.555886780262	71	5	12	10	n/a	n/a	n/a	n/a	n/a	n/a	n/a	n/a	2000	0	BLOCKED	n/a	n/a	+	0	distressed	At this moment	1	2	7	221	NONE	n/a	0.456928838951311	n/a	n/a	n/a	n/a	733.07816091954	0	916.406080833137	-0.00629702590163719	-8.0116245703557e-05	9.22596512925402	841.926979246733	8	3	0	1	0	0	1
362.555635717154	14.5118674978017	panas_none	377.067503214955	72	5	12	10	n/a	n/a	n/a	n/a	n/a	n/a	n/a	n/a	2000	0	BLOCKED	n/a	n/a	+	0	excited	At this moment	3	2	7	221	NONE	n/a	0	1332.66421767623	-0.318754994523529	0.000124207097700585	12.3371124365989	1217.6304619226	0.362029208301307	n/a	n/a	n/a	n/a	884.274698795181	16	4	0	1	0	0	1
378.073655321836	2.51364362919327	punish_rtpj	380.58729895103	73	3	13	10	750	250	250	250	0	0	0	0	2000	0	BLOCKED	0.25	1	6	1	nervous	At this moment	3	2	7	221	RTPJ	568.070751905441	0.549313358302122	n/a	n/a	n/a	n/a	1346.08587257618	0.268255188316679	n/a	n/a	n/a	n/a	1614.50210084034	2	1	0	0	1	0	0
381.57117660141	2.51881087720398	punish_rtpj	384.089987478614	74	3	13	10	750	250	250	250	0	0	0	0	2000	0	BLOCKED	0.25	1	2	-1	irritable	At this moment	4	2	7	221	RTPJ	1290.3662596941	0.68789013732834	n/a	n/a	n/a	n/a	858.132	0	818.590807308459	0.16626716346405	-5.07514837349567e-05	29.5827428232744	916.586471944658	1	2	0	0	1	0	0
385.090669439673	2.51867899835111	punish_rtpj	387.609348438025	75	3	13	10	750	250	250	250	0	0	0	0	2000	0	BLOCKED	0.25	-1	6	-1	distressed	At this moment	2	2	7	221	RTPJ	491.208026647568	0.499375780274657	n/a	n/a	n/a	n/a	1412.21945137157	0	1057.58986851709	0.448572581699357	-0.000142484174209151	17.8922534553388	1315.75480399693	2	3	0	0	1	0	0
388.610125958204	2.53542160117627	punish_rtpj	391.145547559381	76	3	13	10	750	250	250	250	0	0	0	0	2000	0	BLOCKED	0.25	-1	9	-1	proud	At this moment	2	2	7	221	RTPJ	1057.41484570503	0.463171036204744	n/a	n/a	n/a	n/a	1447.2	0	1390.59897488419	-0.0465736658328591	2.89023509343454e-05	15.6423561013517	1375.82936202921	1	4	0	0	1	0	0
392.136469789982	2.51180050075055	punish_rtpj	394.648270290732	77	3	13	10	750	250	250	250	0	0	0	0	2000	0	BLOCKED	0.25	1	4	-1	jittery	At this moment	4	2	7	221	RTPJ	634.61167538166	0.541822721598002	n/a	n/a	n/a	n/a	1594.43324250681	0.303612605687932	n/a	n/a	n/a	n/a	1231.00993377483	2	5	0	0	1	0	0
395.657564566731	2.5103628815412	punish_rtpj	398.167927448273	78	3	13	10	750	250	250	250	0	0	0	0	2000	0	BLOCKED	0.25	1	6	1	excited	At this moment	2	2	7	221	RTPJ	635.017184853554	0.51685393258427	n/a	n/a	n/a	n/a	1323.90180878553	0.273635664873174	n/a	n/a	n/a	n/a	1489.35767195767	2	6	0	0	1	0	0
399.152066035152	2.5187096761465	punish_rtpj	401.670775711298	79	3	13	10	750	250	250	250	0	0	0	0	2000	0	BLOCKED	0.25	1	1	-1	strong	At this moment	2	2	7	221	RTPJ	1258.63073933125	0.550561797752809	n/a	n/a	n/a	n/a	956.469444444444	0.564181398923905	n/a	n/a	n/a	n/a	789.437389770723	3	7	0	0	1	0	0
402.654832138419	2.51877455747132	punish_rtpj	405.17360669589	80	3	13	10	750	250	250	250	0	0	0	0	2000	0	BLOCKED	0.25	1	4	-1	ashamed	At this moment	1	2	7	221	RTPJ	842.795278787613	0.746566791510612	n/a	n/a	n/a	n/a	1042.41871921182	0.762490392006149	n/a	n/a	n/a	n/a	865.038834951456	9	8	0	0	1	0	0
406.191285143971	6.02139785087104	panas_none	412.212682994843	81	5	14	10	n/a	n/a	n/a	n/a	n/a	n/a	n/a	n/a	2000	0	BLOCKED	n/a	n/a	+	0	guilty	At this moment	4	2	7	221	NONE	n/a	0.445692883895131	n/a	n/a	n/a	n/a	1155.93018018018	0.38662567255957	n/a	n/a	n/a	n/a	967.144110275689	9	1	0	1	0	0	0
413.205406745315	6.01294668185716	panas_none	419.218353427172	82	5	14	10	n/a	n/a	n/a	n/a	n/a	n/a	n/a	n/a	2000	0	BLOCKED	n/a	n/a	+	0	attentive	At this moment	4	2	7	221	NONE	n/a	0.385767790262172	n/a	n/a	n/a	n/a	1447.96951219512	0	1525.34740542329	0.0172615514089029	-5.42668733874745e-05	12.6952176953243	1493.34127594158	2	2	0	1	0	0	0
420.206787593126	6.01727999079225	panas_none	426.224067583919	83	5	14	10	n/a	n/a	n/a	n/a	n/a	n/a	n/a	n/a	2000	0	BLOCKED	n/a	n/a	+	0	nervous	At this moment	2	2	7	221	NONE	n/a	0	225.539588430362	0.263946507698889	-3.03499809371418e-05	15.3922976119432	645.353308364544	0	712.298011941436	-0.159746305789022	8.66243992826312e-05	18.2192494924074	651.324365872406	2	3	0	1	0	0	0
427.224795385122	7.55622035598753	panas_none	434.78101574111	84	5	14	10	n/a	n/a	n/a	n/a	n/a	n/a	n/a	n/a	2000	0	BLOCKED	n/a	n/a	+	0	determined	At this moment	5	2	7	221	NONE	n/a	0.3458177278402	n/a	n/a	n/a	n/a	1258.46755725191	0.511145272867025	n/a	n/a	n/a	n/a	957.617924528302	7	4	0	1	0	0	0
435.773567061901	2.51033361434941	punish_rtpj	438.28390067625	85	3	15	10	750	250	250	250	0	0	0	0	2000	0	BLOCKED	0.25	-1	9	-1	scared	At this moment	1	2	7	221	RTPJ	631.88629925251	0.463171036204744	n/a	n/a	n/a	n/a	2248.8	0	1425.14675667655	1.51877487910771	-0.000541924150506553	17.2167494054865	2245.37279016141	2	1	0	0	1	0	0
439.267968387127	2.51874916911123	punish_rtpj	441.786717556238	86	3	15	10	750	250	250	250	0	0	0	0	2000	0	BLOCKED	0.25	1	3	-1	active	At this moment	4	2	7	221	RTPJ	506.564139842987	0.471910112359551	n/a	n/a	n/a	n/a	1918.47990543735	0	1289.84176080498	0.377050184737312	6.69247929892852e-05	28.2012941386279	1668.46041506533	1	2	0	0	1	0	0
442.771017289162	2.51868922424313	punish_rtpj	445.289706513405	87	3	15	10	750	250	250	250	0	0	0	0	2000	0	BLOCKED	0.25	1	7	1	excited	At this moment	4	2	7	221	RTPJ	524.008097410202	0.745318352059925	n/a	n/a	n/a	n/a	1267.64215686275	0	1195.0859610307	0.480708730502903	-0.000114315640458436	17.4592059766105	1504.83935434281	1	3	0	0	1	0	0
446.273734378576	2.51882216084005	punish_rtpj	448.792556539416	88	3	15	10	750	250	250	250	0	0	0	0	2000	0	BLOCKED	0.25	-1	6	-1	determined	At this moment	2	2	7	221	RTPJ	623.610381007195	0.446941323345818	n/a	n/a	n/a	n/a	1579.32731376975	0	1207.50562503008	-0.484237864605105	0.000389195749091739	12.9594457912136	1132.03228285934	1	4	0	0	1	0	0
449.793188076258	2.51864479458334	punish_rtpj	452.311832870841	89	3	15	10	750	250	250	250	0	0	0	0	2000	0	BLOCKED	0.25	1	2	-1	interested	At this moment	5	2	7	221	RTPJ	1010.68746542931	0.826466916354557	n/a	n/a	n/a	n/a	1346.61870503597	0	960.253570694351	0.506378964513256	-0.000228122431251296	15.9090639574789	1193.88162951576	5	5	0	0	1	0	0
453.296167160153	2.51866277790066	punish_rtpj	455.814829938054	90	3	15	10	750	250	250	250	0	0	0	0	2000	0	BLOCKED	0.25	1	3	-1	nervous	At this moment	5	2	7	221	RTPJ	539.915350675583	0.50187265917603	n/a	n/a	n/a	n/a	979.979949874687	0.830899308224443	n/a	n/a	n/a	n/a	813.754545454545	13	6	0	0	1	0	0
456.815598995566	2.5187389432192	punish_rtpj	459.334337938786	91	3	15	10	750	250	250	250	0	0	0	0	2000	0	BLOCKED	0.25	1	10	1	hostile	At this moment	5	2	7	221	RTPJ	590.721450567245	0.530586766541823	n/a	n/a	n/a	n/a	933.968085106383	0	665.064697906456	0.0756483277581317	0.000174039134456235	34.5872214613294	880.35049961568	1	7	0	0	1	0	0
460.335037178159	2.51890008914472	punish_rtpj	462.853937267303	92	3	15	10	750	250	250	250	0	0	0	0	2000	0	BLOCKED	0.25	-1	8	-1	determined	At this moment	4	2	7	221	RTPJ	640.599815368652	0.49812734082397	n/a	n/a	n/a	n/a	1259.93781094527	0	735.285723099323	-0.0819665875817793	0.000257958164777491	31.8341140326744	886.615680245965	1	8	0	0	1	0	0
463.856181673765	6.02019542741772	panas_none	469.876377101183	93	5	16	10	n/a	n/a	n/a	n/a	n/a	n/a	n/a	n/a	2000	0	BLOCKED	n/a	n/a	+	0	jittery	At this moment	1	2	7	221	NONE	n/a	0.504369538077403	n/a	n/a	n/a	n/a	1160.48614609572	0.294388931591084	n/a	n/a	n/a	n/a	1188.80936819172	6	1	0	1	0	0	0
470.860347489834	6.02158226954936	panas_none	476.881929759383	94	5	16	10	n/a	n/a	n/a	n/a	n/a	n/a	n/a	n/a	2000	0	BLOCKED	n/a	n/a	+	0	active	At this moment	3	2	7	221	NONE	n/a	0.464419475655431	n/a	n/a	n/a	n/a	1840.20046620047	0	1739.02903273675	-0.427393928239553	0.000386840809448216	29.0161637705331	1708.01152959262	3	2	0	1	0	0	0
477.866062704325	6.02150716221331	panas_none	483.887569866538	95	5	16	10	n/a	n/a	n/a	n/a	n/a	n/a	n/a	n/a	2000	0	BLOCKED	n/a	n/a	+	0	irritable	At this moment	2	2	7	221	NONE	n/a	0.48314606741573	n/a	n/a	n/a	n/a	1450.1038647343	0.238278247501922	985.332947922794	-0.284824758789111	0.000389098025281319	25.1928088758119	1075.36024217962	5	3	0	1	0	0	0
484.871575869441	7.08923146808149	panas_none	491.960807337523	96	5	16	10	n/a	n/a	n/a	n/a	n/a	n/a	n/a	n/a	2000	0	BLOCKED	n/a	n/a	+	0	excited	At this moment	5	2	7	221	NONE	n/a	0.449438202247191	n/a	n/a	n/a	n/a	1207.70294784581	0.356648731744812	n/a	n/a	n/a	n/a	1214.70250896057	11	4	0	1	0	0	0
