onset	duration	trial_type	offset	trial	block	blockCntr	frequency	amplitude_1	amplitude_2	amplitude_3	amplitude_4	amplitude_5	amplitude_6	amplitude_7	amplitude_8	transition	sham	mode	rewardFraction	guess	outcome	correct	word	when	answer	runNr	scanNr	subjectNr	target	reactionTime	outcomeEyeClosed	outcomeParms_1	outcomeParms_2	outcomeParms_3	outcomeSigma	outcomePupilArea	guessEyeClosed	guessParms_1	guessParms_2	guessParms_3	guessSigma	guessPupilArea	nrBlinks	trialInBlock	isReward	isPanas	isPunish	beforePanasReward	beforePanasVLPFC
20.354923713088	2.50302527666092	reward_rtpj	22.857948989749	1	1	1	10	750	250	250	250	0	0	0	0	2000	0	BLOCKED	0.75	1	4	-1	excited	At this moment	1	3	11	221	RTPJ	942.0759755373	0.518102372034956	n/a	n/a	n/a	n/a	1807.96373056995	0.276710222905457	n/a	n/a	n/a	n/a	1693.42082890542	3	1	1	0	0	0	0
23.8585762952566	2.51877632057667	reward_rtpj	26.3773526158333	2	1	1	10	750	250	250	250	0	0	0	0	2000	0	BLOCKED	0.75	-1	0	1	active	At this moment	2	3	11	221	RTPJ	391.574007630348	0.445692883895131	n/a	n/a	n/a	n/a	1424.79279279279	0	837.437415210026	0.77475268398413	-8.79279869956233e-05	15.3081654592185	1420.12990007686	1	2	1	0	0	0	0
27.3613818913698	2.5189730809927	reward_rtpj	29.8803549723625	3	1	1	10	750	250	250	250	0	0	0	0	2000	0	BLOCKED	0.75	1	10	1	proud	At this moment	5	3	11	221	RTPJ	607.657287597656	0.48689138576779	n/a	n/a	n/a	n/a	1427.90754257908	0	1162.83191827332	0.480617599259922	-5.04404310776776e-05	16.1114898413029	1527.53651037663	1	3	1	0	0	0	0
30.8845394771099	2.53190177917481	reward_rtpj	33.4164412562847	4	1	1	10	750	250	250	250	0	0	0	0	2000	0	BLOCKED	0.75	1	9	1	distressed	At this moment	2	3	11	221	RTPJ	387.05839574337	0.525593008739076	n/a	n/a	n/a	n/a	1613.27894736842	0	889.507250947006	0.608443435240685	8.05700029126194e-07	27.3446236797681	1408.53497309762	2	4	1	0	0	0	0
34.4005350607634	2.53547660934925	reward_rtpj	36.9360116701126	5	1	1	10	750	250	250	250	0	0	0	0	2000	0	BLOCKED	0.75	-1	4	1	ashamed	At this moment	4	3	11	221	RTPJ	595.222605466843	1	n/a	n/a	n/a	n/a	n/a	1	n/a	n/a	n/a	n/a	n/a	2	5	1	0	0	0	0
37.9368103474379	2.51873435926438	reward_rtpj	40.4555447067022	6	1	1	10	750	250	250	250	0	0	0	0	2000	0	BLOCKED	0.75	-1	4	1	enthusiastic	At this moment	1	3	11	221	RTPJ	857.347425341606	0.455680399500624	n/a	n/a	n/a	n/a	1501.85321100917	0	871.091261026792	0.50299053301038	4.52188487895595e-05	36.8228482497874	1338.84704073789	1	6	1	0	0	0	0
41.4396004285812	2.51885283851624	reward_rtpj	43.9584532670975	7	1	1	10	750	250	250	250	0	0	0	0	2000	0	BLOCKED	0.75	1	9	1	alert	At this moment	1	3	11	221	RTPJ	640.876267075539	0.515605493133583	n/a	n/a	n/a	n/a	1341.02319587629	0	1059.41162229974	-0.238722687467203	0.000297668920715425	14.9062844814043	1114.50422751729	1	7	1	0	0	0	0
44.9425513030291	2.51897413885593	reward_rtpj	47.461525441885	8	1	1	10	750	250	250	250	0	0	0	0	2000	0	BLOCKED	0.75	1	1	-1	excited	At this moment	3	3	11	221	RTPJ	706.861113786697	0.47940074906367	n/a	n/a	n/a	n/a	1755.25179856115	0.235972328977709	695.355783796561	0.973616476824083	-0.000179658682139648	21.0213794622048	1424.62273641851	2	8	1	0	0	0	0
48.4711451833248	5.99572593057155	panas_none	54.4668711138964	9	5	2	10	n/a	n/a	n/a	n/a	n/a	n/a	n/a	n/a	2000	0	BLOCKED	n/a	n/a	+	0	strong	At this moment	3	3	11	221	NONE	n/a	0.149812734082397	-4755.10165365487	5.29003296724727	-0.00114141479250831	25.0113368284698	1297.96035242291	0.424289008455035	n/a	n/a	n/a	n/a	1253.44859813084	6	1	0	1	0	1	0
55.4726297004223	5.99992066121101	panas_none	61.4725503616333	10	5	2	10	n/a	n/a	n/a	n/a	n/a	n/a	n/a	n/a	2000	0	BLOCKED	n/a	n/a	+	0	enthusiastic	At this moment	3	3	11	221	NONE	n/a	0.375780274656679	n/a	n/a	n/a	n/a	1285.58	0	1099.88170824175	-0.234099036972592	0.000184612781638502	11.5116118225501	1060.23059185242	4	2	0	1	0	1	0
62.4733627909422	6.00491371643544	panas_none	68.4782765073776	11	5	2	10	n/a	n/a	n/a	n/a	n/a	n/a	n/a	n/a	2000	0	BLOCKED	n/a	n/a	+	0	interested	At this moment	4	3	11	221	NONE	n/a	0	741.580583427229	0.0526927987651589	2.95158292829809e-05	9.86872942288922	983.832709113608	0.139123750960799	1115.10153019153	0.277075845481006	-0.000294701834474666	32.8020174663295	1058.98482142857	5	3	0	1	0	1	0
69.4790325180292	10.942323512435	panas_none	80.4213560304642	12	5	2	10	n/a	n/a	n/a	n/a	n/a	n/a	n/a	n/a	2000	0	BLOCKED	n/a	n/a	+	0	distressed	At this moment	3	3	11	221	NONE	n/a	0.275905118601748	n/a	n/a	n/a	n/a	1843.19655172414	0.346656418139892	n/a	n/a	n/a	n/a	1583.35411764706	7	4	0	1	0	1	0
81.4099132597446	2.51409709441663	reward_vlpfc	83.9240103541613	13	2	3	10	0	0	0	0	250	250	250	750	2000	0	BLOCKED	0.75	-1	0	1	irritable	At this moment	5	3	11	221	VLPFC	469.668423771858	0.529338327091136	n/a	n/a	n/a	n/a	1844.81167108753	0.0353574173712529	720.760590362464	0.70247505408348	-1.6694242776535e-05	29.4911417559234	1287.68844621514	2	1	1	0	0	0	0
84.9252505078316	2.53509437263011	reward_vlpfc	87.4603448804617	14	2	3	10	0	0	0	0	250	250	250	750	2000	0	BLOCKED	0.75	-1	3	1	hostile	At this moment	2	3	11	221	VLPFC	624.171746969223	0.523096129837703	n/a	n/a	n/a	n/a	1409.21989528796	0.291314373558801	n/a	n/a	n/a	n/a	1340.80260303688	2	2	1	0	0	0	0
88.4611911609173	2.51877526295185	reward_vlpfc	90.9799664238691	15	2	3	10	0	0	0	0	250	250	250	750	2000	0	BLOCKED	0.75	-1	1	1	proud	At this moment	1	3	11	221	VLPFC	774.230687022209	0.465667915106117	n/a	n/a	n/a	n/a	1410.82710280374	0	1253.33669734712	0.11858087276306	6.50826064082146e-05	20.2523246189152	1408.69254419677	2	3	1	0	0	0	0
91.9639565589428	2.51865360999108	reward_vlpfc	94.4826101689339	16	2	3	10	0	0	0	0	250	250	250	750	2000	0	BLOCKED	0.75	-1	6	-1	inspired	At this moment	5	3	11	221	VLPFC	1341.79790186882	0.52059925093633	n/a	n/a	n/a	n/a	1532.84375	0	1085.1225680513	-0.00422668215949169	0.000169912018321976	12.8330701861389	1228.24289008455	1	4	1	0	0	0	0
95.4836634355784	2.51861658525466	reward_vlpfc	98.002280020833	17	2	3	10	0	0	0	0	250	250	250	750	2000	0	BLOCKED	0.75	1	8	1	distressed	At this moment	2	3	11	221	VLPFC	1257.20475661755	0.465667915106117	n/a	n/a	n/a	n/a	1281.1191588785	0	1253.55536512362	0.0529318623505282	3.38207129350567e-05	16.7101164014732	1326.81091468101	2	5	1	0	0	0	0
98.9864365911484	2.51866030967236	reward_vlpfc	101.505096900821	18	2	3	10	0	0	0	0	250	250	250	750	2000	0	BLOCKED	0.75	1	2	-1	attentive	At this moment	4	3	11	221	VLPFC	1008.02273952961	0.421972534332085	n/a	n/a	n/a	n/a	1567.656587473	0	833.626614735281	0.13114750462431	0.00019316998168979	24.7537020074328	1112.25211375865	1	6	1	0	0	0	0
102.489314826608	2.51864373672008	reward_vlpfc	105.007958563328	19	2	3	10	0	0	0	0	250	250	250	750	2000	0	BLOCKED	0.75	1	8	1	nervous	At this moment	3	3	11	221	VLPFC	1441.20413029194	0.460674157303371	n/a	n/a	n/a	n/a	1455.87962962963	0	1039.66776086364	0.279009764685876	6.26471161481901e-05	21.1053465551304	1330.9907763259	1	7	1	0	0	0	0
105.992074230075	2.51872871732712	reward_vlpfc	108.510802947402	20	2	3	10	0	0	0	0	250	250	250	750	2000	0	BLOCKED	0.75	1	6	1	ashamed	At this moment	2	3	11	221	VLPFC	807.831197977066	0.481897627965044	n/a	n/a	n/a	n/a	1469.91084337349	0	1296.32400563278	0.25033953879329	8.9471685650976e-05	16.6214584200922	1586.56033820138	1	8	1	0	0	0	0
109.511680258155	6.00507838857175	panas_none	115.516758646727	21	5	4	10	n/a	n/a	n/a	n/a	n/a	n/a	n/a	n/a	2000	0	BLOCKED	n/a	n/a	+	0	strong	At this moment	3	3	11	221	NONE	n/a	0.375780274656679	n/a	n/a	n/a	n/a	1146.516	0.285933897002306	n/a	n/a	n/a	n/a	1127.41872981701	6	1	0	1	0	1	1
116.51717720294	6.0051630166769	panas_none	122.522340219617	22	5	4	10	n/a	n/a	n/a	n/a	n/a	n/a	n/a	n/a	2000	0	BLOCKED	n/a	n/a	+	0	hostile	At this moment	1	3	11	221	NONE	n/a	0	2631.45816697866	-1.53042260610027	0.000419315302539539	16.7636027375847	1289.24594257179	0.239046887009992	1120.5372253198	-0.266779153000974	0.000203248322488028	15.6227640692511	1042.80303030303	4	2	0	1	0	1	1
123.529026893735	5.99877641940117	panas_none	129.527803313136	23	5	4	10	n/a	n/a	n/a	n/a	n/a	n/a	n/a	n/a	2000	0	BLOCKED	n/a	n/a	+	0	inspired	At this moment	4	3	11	221	NONE	n/a	0.343320848938826	n/a	n/a	n/a	n/a	1341.68441064639	0.0983858570330515	1443.85499259999	-0.133496868326003	0.000111922531539081	11.8488546309397	1420.96504688832	6	3	0	1	0	1	1
130.512374560952	6.20467964935301	panas_none	136.717054210305	24	5	4	10	n/a	n/a	n/a	n/a	n/a	n/a	n/a	n/a	2000	0	BLOCKED	n/a	n/a	+	0	nervous	At this moment	2	3	11	221	NONE	n/a	0.324594257178527	n/a	n/a	n/a	n/a	1897.38817005545	0.273635664873174	n/a	n/a	n/a	n/a	1720.42010582011	3	4	0	1	0	1	1
137.701086659431	2.51880100381373	punish_rtpj	140.219887663245	25	3	5	10	750	250	250	250	0	0	0	0	2000	0	BLOCKED	0.25	1	4	-1	irritable	At this moment	2	3	11	221	RTPJ	457.772187709808	0.47940074906367	n/a	n/a	n/a	n/a	1766.5035971223	0.245196003074558	848.978385082954	0.253245026415287	0.000258844915885624	10.3081698778245	1167.46130346232	2	1	0	0	1	0	0
141.222724466205	2.51712995231151	punish_rtpj	143.739854418516	26	3	5	10	750	250	250	250	0	0	0	0	2000	0	BLOCKED	0.25	-1	0	1	ashamed	At this moment	3	3	11	221	RTPJ	472.749942779541	0.441947565543071	n/a	n/a	n/a	n/a	1508.28635346756	0	1014.37185091925	0.440589512829719	1.64682527378633e-05	23.3382428794205	1403.48270561107	1	2	0	0	1	0	0
144.740299421191	2.51867300379274	punish_rtpj	147.258972424984	27	3	5	10	750	250	250	250	0	0	0	0	2000	0	BLOCKED	0.25	1	0	-1	afraid	At this moment	2	3	11	221	RTPJ	557.107892513275	0.515605493133583	n/a	n/a	n/a	n/a	1612.65979381443	0	683.260166372546	0.96959842608704	-0.00023648094823243	15.2660713709457	1313.84012298232	1	3	0	0	1	0	0
148.25969811058	2.5187872517109	punish_rtpj	150.778485362291	28	3	5	10	750	250	250	250	0	0	0	0	2000	0	BLOCKED	0.25	1	2	-1	strong	At this moment	1	3	11	221	RTPJ	824.409481287003	0.544319600499376	n/a	n/a	n/a	n/a	1651.43561643836	0	966.53827748768	0.636850988840037	-0.000100351290244849	17.7687252183094	1422.74865488086	1	4	0	0	1	0	0
151.772366754055	2.50892596769333	punish_rtpj	154.281292721748	29	3	5	10	750	250	250	250	0	0	0	0	2000	0	BLOCKED	0.25	1	9	1	alert	At this moment	1	3	11	221	RTPJ	1414.87352156639	0.504369538077403	n/a	n/a	n/a	n/a	1444.31989924433	0	1359.80820211624	-0.0330905658410896	0.00016015897757229	11.832557173361	1469.96003074558	2	5	0	0	1	0	0
155.282139354825	2.5187551636696	punish_rtpj	157.800894518495	30	3	5	10	750	250	250	250	0	0	0	0	2000	0	BLOCKED	0.25	1	3	-1	ashamed	At this moment	5	3	11	221	RTPJ	1473.03556263447	0.433208489388265	n/a	n/a	n/a	n/a	1565.75550660793	0.317448116833205	n/a	n/a	n/a	n/a	1402.54054054054	2	6	0	0	1	0	0
158.785005248666	2.51869980275632	punish_rtpj	161.303705051422	31	3	5	10	750	250	250	250	0	0	0	0	2000	0	BLOCKED	0.25	1	2	-1	irritable	At this moment	3	3	11	221	RTPJ	1340.83067381382	0.476903870162297	n/a	n/a	n/a	n/a	1807.39140811456	0	1069.92157172097	0.485597224819416	5.00049292062871e-06	22.9198340805938	1490.4189085319	1	7	0	0	1	0	0
162.295976041794	2.52730823898315	punish_rtpj	164.823284280777	32	3	5	10	750	250	250	250	0	0	0	0	2000	0	BLOCKED	0.25	-1	6	-1	interested	At this moment	4	3	11	221	RTPJ	650.805253624916	0.710362047440699	n/a	n/a	n/a	n/a	1897.46120689655	0.242890084550346	967.933473638907	0.856030363024506	-7.90124839739141e-05	28.4607852982088	1674.20203045685	2	8	0	0	1	0	0
165.807716244936	6.00468839418889	panas_none	171.812404639125	33	5	6	10	n/a	n/a	n/a	n/a	n/a	n/a	n/a	n/a	2000	0	BLOCKED	n/a	n/a	+	0	strong	At this moment	1	3	11	221	NONE	n/a	0.124843945068664	-9218.48038931713	9.30037234573078	-0.00199209053360122	20.146200967682	1485.59629101284	0.38662567255957	n/a	n/a	n/a	n/a	1526.9298245614	5	1	0	1	0	0	0
172.813044638872	6.00492323696614	panas_none	178.817967875838	34	5	6	10	n/a	n/a	n/a	n/a	n/a	n/a	n/a	n/a	2000	0	BLOCKED	n/a	n/a	+	0	proud	At this moment	1	3	11	221	NONE	n/a	0.292134831460674	n/a	n/a	n/a	n/a	1326.59082892416	0	1314.03029065064	-0.0486418330737403	1.4377215115639e-05	12.9607857104016	1284.8478093774	4	2	0	1	0	0	0
179.818732701898	6.00487316548822	panas_none	185.823605867386	35	5	6	10	n/a	n/a	n/a	n/a	n/a	n/a	n/a	n/a	2000	0	BLOCKED	n/a	n/a	+	0	irritable	At this moment	1	3	11	221	NONE	n/a	0.14856429463171	-4024.12166027498	4.56985905474305	-0.00097385133492396	16.7727096139773	1234.56011730205	0.069946195234435	829.096337579991	0.537319647631703	-0.000235125860892805	9.99485476437315	1080.51074380165	4	3	0	1	0	0	0
186.807652773976	8.12333340024949	panas_none	194.930986174226	36	5	6	10	n/a	n/a	n/a	n/a	n/a	n/a	n/a	n/a	2000	0	BLOCKED	n/a	n/a	+	0	inspired	At this moment	4	3	11	221	NONE	n/a	0.310861423220974	n/a	n/a	n/a	n/a	1695.6865942029	0.6456571867794	n/a	n/a	n/a	n/a	1305.94143167028	4	4	0	1	0	0	0
195.915153675675	2.53535037243367	punish_vlpfc	198.450504048109	37	4	7	10	0	0	0	0	250	250	250	750	2000	0	BLOCKED	0.25	1	2	-1	enthusiastic	At this moment	5	3	11	221	VLPFC	590.962288022041	0.504369538077403	n/a	n/a	n/a	n/a	1668.31234256927	0	1237.44566923679	-0.217423893329834	0.000351889077865818	14.6095589061802	1356.52882398155	1	1	0	0	1	0	0
199.4513365767	2.51883732330799	punish_vlpfc	201.970173900008	38	4	7	10	0	0	0	0	250	250	250	750	2000	0	BLOCKED	0.25	-1	6	-1	excited	At this moment	5	3	11	221	VLPFC	402.831654667854	0.438202247191011	n/a	n/a	n/a	n/a	1764.30222222222	0	841.255289212162	0.451835539695463	6.82436842022233e-05	19.1963784716993	1284.45042275173	1	2	0	0	1	0	0
202.971597061872	2.51809435951711	punish_vlpfc	205.48969142139	39	4	7	10	0	0	0	0	250	250	250	750	2000	0	BLOCKED	0.25	1	4	-1	hostile	At this moment	4	3	11	221	VLPFC	1481.0512496233	0.172284644194757	2121.40427177128	-0.281901225739666	7.98081172131558e-05	13.7846625035294	1880.76470588235	0.280553420445811	n/a	n/a	n/a	n/a	1543.18269230769	2	3	0	0	1	0	0
206.475191109419	2.53391099035741	punish_vlpfc	209.009102099776	40	4	7	10	0	0	0	0	250	250	250	750	2000	0	BLOCKED	0.25	-1	4	1	afraid	At this moment	2	3	11	221	VLPFC	1322.48013806343	0.508114856429463	n/a	n/a	n/a	n/a	1713.80456852792	0.260568793235972	n/a	n/a	n/a	n/a	1836.13617463617	2	4	0	0	1	0	0
210.016214030027	2.52932520759106	punish_vlpfc	212.545539237618	41	4	7	10	0	0	0	0	250	250	250	750	2000	0	BLOCKED	0.25	-1	10	-1	jittery	At this moment	2	3	11	221	VLPFC	868.264444231987	0.519350811485643	n/a	n/a	n/a	n/a	1812.85714285714	0	1186.25507883382	0.434445221079524	1.63621501510052e-05	24.0563473214925	1570.00153727902	1	5	0	0	1	0	0
213.546185584426	2.51876503682138	punish_vlpfc	216.064950621247	42	4	7	10	0	0	0	0	250	250	250	750	2000	0	BLOCKED	0.25	1	3	-1	interested	At this moment	2	3	11	221	VLPFC	1127.79118299484	0.51685393258427	n/a	n/a	n/a	n/a	1820.70284237726	0.289777094542659	n/a	n/a	n/a	n/a	1615.77164502165	2	6	0	0	1	0	0
217.048932646275	2.51889374196529	punish_vlpfc	219.56782638824	43	4	7	10	0	0	0	0	250	250	250	750	2000	0	BLOCKED	0.25	-1	3	1	distressed	At this moment	2	3	11	221	VLPFC	1472.24711108208	0.406991260923845	n/a	n/a	n/a	n/a	1449.85684210526	0.289008455034589	n/a	n/a	n/a	n/a	1546.81945945946	2	7	0	0	1	0	0
220.568631060123	2.51866242539884	punish_vlpfc	223.087293485522	44	4	7	10	0	0	0	0	250	250	250	750	2000	0	BLOCKED	0.25	1	2	-1	scared	At this moment	2	3	11	221	VLPFC	873.891504645348	0.47565543071161	n/a	n/a	n/a	n/a	1888.6119047619	0	1529.70965114786	0.299183020840488	4.72198544845851e-05	30.2746506039338	1825.19754035357	1	8	0	0	1	0	0
224.076503761172	5.99981381833553	panas_none	230.076317579508	45	5	8	10	n/a	n/a	n/a	n/a	n/a	n/a	n/a	n/a	2000	0	BLOCKED	n/a	n/a	+	0	active	At this moment	3	3	11	221	NONE	n/a	0	-3119.75550000767	4.12141330839896	-0.000938544027091498	29.6735692544203	1343.05992509363	0.544965411222137	n/a	n/a	n/a	n/a	1170.1722972973	7	1	0	1	0	0	1
231.081735185385	6.00028597235678	panas_none	237.082021157742	46	5	8	10	n/a	n/a	n/a	n/a	n/a	n/a	n/a	n/a	2000	0	BLOCKED	n/a	n/a	+	0	attentive	At this moment	4	3	11	221	NONE	n/a	0.533083645443196	n/a	n/a	n/a	n/a	1399.56417112299	0.255188316679477	n/a	n/a	n/a	n/a	1639.46749226006	5	2	0	1	0	0	1
238.087713099599	6.00000634706021	panas_none	244.087719446659	47	5	8	10	n/a	n/a	n/a	n/a	n/a	n/a	n/a	n/a	2000	0	BLOCKED	n/a	n/a	+	0	strong	At this moment	2	3	11	221	NONE	n/a	0.234706616729089	3620.30326641222	-1.9756464564179	0.000437735643720395	11.5134609490459	1430.90864600326	0	1817.41887219695	-0.450506296694612	0.000157924920834187	14.8695482847026	1570.81322059954	4	3	0	1	0	0	1
245.07198955965	12.6602814799547	panas_none	257.732271039605	48	5	8	10	n/a	n/a	n/a	n/a	n/a	n/a	n/a	n/a	2000	0	BLOCKED	n/a	n/a	+	0	jittery	At this moment	1	3	11	221	NONE	n/a	0.109862671660424	-3776.93729579374	5.27733194383112	-0.00119644547298329	16.1438563560738	1963.05049088359	0.490392006149116	n/a	n/a	n/a	n/a	1737.7269984917	8	4	0	1	0	0	1
258.721002109051	2.51401916611195	punish_rtpj	261.235021275163	49	3	9	10	750	250	250	250	0	0	0	0	2000	0	BLOCKED	0.25	1	2	-1	inspired	At this moment	5	3	11	221	RTPJ	669.906863212585	0.694132334581773	n/a	n/a	n/a	n/a	1772.49795918367	0.00768639508070715	727.62023664684	1.31601839085332	-0.000270836919885873	16.2525762231775	1615.2594887684	3	1	0	0	1	0	0
262.219158451557	2.51870015537736	punish_rtpj	264.737858606935	50	3	9	10	750	250	250	250	0	0	0	0	2000	0	BLOCKED	0.25	-1	8	-1	active	At this moment	1	3	11	221	RTPJ	573.357184290886	0.49812734082397	n/a	n/a	n/a	n/a	1612.07711442786	0	1163.47883697506	-0.239619907586207	0.000360009726467307	15.6193407499477	1270.56264411991	1	2	0	0	1	0	0
265.738608623028	2.5353500199318	punish_rtpj	268.27395864296	51	3	9	10	750	250	250	250	0	0	0	0	2000	0	BLOCKED	0.25	-1	7	-1	hostile	At this moment	2	3	11	221	RTPJ	674.240877628326	0.82521847690387	n/a	n/a	n/a	n/a	1859.54285714286	0	1201.87428641279	0.465818907952099	-4.92964969651636e-05	33.6700671198718	1555.43274404304	1	3	0	0	1	0	0
269.274843711376	2.51877949416638	punish_rtpj	271.793623205543	52	3	9	10	750	250	250	250	0	0	0	0	2000	0	BLOCKED	0.25	1	0	-1	afraid	At this moment	1	3	11	221	RTPJ	606.909739613533	0.48689138576779	n/a	n/a	n/a	n/a	1900.31143552311	0.184473481936972	1071.12988027565	0.393471366718413	0.000179128189833487	26.1072104534619	1470.51837888784	2	4	0	0	1	0	0
272.799298574448	2.51410696768761	punish_rtpj	275.313405542135	53	3	9	10	750	250	250	250	0	0	0	0	2000	0	BLOCKED	0.25	1	8	1	nervous	At this moment	5	3	11	221	RTPJ	869.269402503967	0.474406991260924	n/a	n/a	n/a	n/a	1552.78859857482	0	1252.17679988859	0.713998315806251	-0.000158823920311557	13.9156340723597	1721.33897002306	2	5	0	0	1	0	0
276.302790363193	2.51321202611922	punish_rtpj	278.816002389312	54	3	9	10	750	250	250	250	0	0	0	0	2000	0	BLOCKED	0.25	1	6	1	guilty	At this moment	2	3	11	221	RTPJ	645.193003177643	0.473158551810237	n/a	n/a	n/a	n/a	1649.84360189573	0	1285.08924575425	0.0280841504886637	0.00025549474274994	28.1964752049146	1530.86548808609	1	6	0	0	1	0	0
279.804999331713	2.51369546389577	punish_rtpj	282.318694795609	55	3	9	10	750	250	250	250	0	0	0	0	2000	0	BLOCKED	0.25	-1	7	-1	distressed	At this moment	3	3	11	221	RTPJ	938.692263960838	0.566791510611735	n/a	n/a	n/a	n/a	1498.38328530259	0.304381245196003	n/a	n/a	n/a	n/a	1325.10497237569	2	7	0	0	1	0	0
283.31952732408	2.51874740600584	punish_rtpj	285.838274730086	56	3	9	10	750	250	250	250	0	0	0	0	2000	0	BLOCKED	0.25	-1	10	-1	alert	At this moment	3	3	11	221	RTPJ	1472.19562900066	0.383270911360799	n/a	n/a	n/a	n/a	1617.06275303644	0.293620292083013	n/a	n/a	n/a	n/a	1554.7247007617	2	8	0	0	1	0	0
286.856091403842	6.00459001410007	panas_none	292.860681417942	57	5	10	10	n/a	n/a	n/a	n/a	n/a	n/a	n/a	n/a	2000	0	BLOCKED	n/a	n/a	+	0	upset	At this moment	3	3	11	221	NONE	n/a	0.464419475655431	n/a	n/a	n/a	n/a	1196.89277389277	0	1559.01572231004	-0.181374126166457	-8.18520280380882e-05	55.2402126721846	1337.3996925442	6	1	0	1	0	0	0
293.866191762209	6.00013893103602	panas_none	299.866330693245	58	5	10	10	n/a	n/a	n/a	n/a	n/a	n/a	n/a	n/a	2000	0	BLOCKED	n/a	n/a	+	0	inspired	At this moment	3	3	11	221	NONE	n/a	0	3433.54708724922	-1.82331526848353	0.0004252503685979	18.796321220932	1502.78901373283	0.268255188316679	n/a	n/a	n/a	n/a	1535.28046218487	5	2	0	1	0	0	0
300.867404411674	6.02128748190404	panas_none	306.888691893578	59	5	10	10	n/a	n/a	n/a	n/a	n/a	n/a	n/a	n/a	2000	0	BLOCKED	n/a	n/a	+	0	hostile	At this moment	1	3	11	221	NONE	n/a	0.481897627965044	n/a	n/a	n/a	n/a	1536.98313253012	0	1808.56325168398	-0.632578011835183	0.000306434663221628	15.6264203798571	1535.04227517294	3	3	0	1	0	0	0
307.88959811902	9.77487244963646	panas_none	317.664470568657	60	5	10	10	n/a	n/a	n/a	n/a	n/a	n/a	n/a	n/a	2000	0	BLOCKED	n/a	n/a	+	0	nervous	At this moment	1	3	11	221	NONE	n/a	0	-1228.4590543894	3.17587638161888	-0.000804934095867244	20.2644346386052	1848.31086142322	0.583397386625673	n/a	n/a	n/a	n/a	1595.09040590406	6	4	0	1	0	0	0
318.648296031713	2.535410317421	reward_vlpfc	321.183706349134	61	2	11	10	0	0	0	0	250	250	250	750	2000	0	BLOCKED	0.75	1	2	-1	attentive	At this moment	2	3	11	221	VLPFC	890.111529231071	0.51685393258427	n/a	n/a	n/a	n/a	1678.59173126615	0.245964642582629	774.077736394923	0.803653261856322	6.16344414034784e-06	26.1983508847405	1448.61162079511	2	1	1	0	0	0	0
322.167663690925	2.51891419374942	reward_vlpfc	324.686577884674	62	2	11	10	0	0	0	0	250	250	250	750	2000	0	BLOCKED	0.75	-1	0	1	excited	At this moment	1	3	11	221	VLPFC	473.745380282402	0.445692883895131	n/a	n/a	n/a	n/a	1651.3490990991	0	1207.19513395502	0.0143071007493055	0.000294160686691915	32.0964435194563	1473.38739431207	1	2	1	0	0	0	0
325.670704482675	2.51865360999108	reward_vlpfc	328.189358092666	63	2	11	10	0	0	0	0	250	250	250	750	2000	0	BLOCKED	0.75	-1	7	-1	scared	At this moment	5	3	11	221	VLPFC	973.629545688629	0.463171036204744	n/a	n/a	n/a	n/a	1584.92325581395	0	1225.00173042209	0.159954737878545	6.42535028718633e-05	19.9076860488191	1415.97924673328	1	3	1	0	0	0	0
329.190143017888	2.51889127373693	reward_vlpfc	331.709034291625	64	2	11	10	0	0	0	0	250	250	250	750	2000	0	BLOCKED	0.75	1	8	1	nervous	At this moment	1	3	11	221	VLPFC	1174.05240380764	0.525593008739076	n/a	n/a	n/a	n/a	1457.63947368421	0.286702536510377	n/a	n/a	n/a	n/a	1598.84375	2	4	1	0	0	0	0
332.698170165181	2.51346449971197	reward_vlpfc	335.211634664893	65	2	11	10	0	0	0	0	250	250	250	750	2000	0	BLOCKED	0.75	-1	1	1	inspired	At this moment	1	3	11	221	VLPFC	869.096267461777	0.514357053682896	n/a	n/a	n/a	n/a	1499.86889460154	0.289008455034589	n/a	n/a	n/a	n/a	1560.00108108108	2	5	1	0	0	0	0
336.212665716648	2.53526010262971	reward_vlpfc	338.747925819278	66	2	11	10	0	0	0	0	250	250	250	750	2000	0	BLOCKED	0.75	-1	3	1	determined	At this moment	3	3	11	221	VLPFC	688.047592043877	0.500624219725343	n/a	n/a	n/a	n/a	1453.7025	0	1075.10943931885	0.256179354907624	6.56801440445892e-05	12.4106852710063	1349.79323597233	1	6	1	0	0	0	0
339.755667170525	2.51186361908913	reward_vlpfc	342.267530789614	67	2	11	10	0	0	0	0	250	250	250	750	2000	0	BLOCKED	0.75	1	10	1	guilty	At this moment	5	3	11	221	VLPFC	933.63996899128	0.489388264669164	n/a	n/a	n/a	n/a	1493.02689486553	0.279016141429669	n/a	n/a	n/a	n/a	1351.54904051173	2	7	1	0	0	0	0
343.25150294137	2.5186581939459	reward_vlpfc	345.770161135316	68	2	11	10	0	0	0	0	250	250	250	750	2000	0	BLOCKED	0.75	1	6	1	nervous	At this moment	1	3	11	221	VLPFC	1291.0993500948	0.489388264669164	n/a	n/a	n/a	n/a	1419.42542787286	0.33358954650269	n/a	n/a	n/a	n/a	1491.2214532872	3	8	1	0	0	0	0
346.781103895426	6.01156971287725	panas_none	352.792673608303	69	5	12	10	n/a	n/a	n/a	n/a	n/a	n/a	n/a	n/a	2000	0	BLOCKED	n/a	n/a	+	0	upset	At this moment	1	3	11	221	NONE	n/a	1	n/a	n/a	n/a	n/a	n/a	1	n/a	n/a	n/a	n/a	n/a	5	1	0	1	0	1	1
353.793420803547	6.00519228363038	panas_none	359.798613087177	70	5	12	10	n/a	n/a	n/a	n/a	n/a	n/a	n/a	n/a	2000	0	BLOCKED	n/a	n/a	+	0	strong	At this moment	3	3	11	221	NONE	n/a	0	1138.58181115781	0.829787112640205	-0.000244700377944788	12.1286141687717	1789.03995006242	0.259031514219831	n/a	n/a	n/a	n/a	1745.89004149378	4	2	0	1	0	1	1
360.782570781708	6.00480440509318	panas_none	366.787375186801	71	5	12	10	n/a	n/a	n/a	n/a	n/a	n/a	n/a	n/a	2000	0	BLOCKED	n/a	n/a	+	0	attentive	At this moment	3	3	11	221	NONE	n/a	0	2070.27735808963	-0.67614861526114	0.000204867815645517	17.4444243307953	1564.51435705368	0.117601844734819	948.074742050229	1.40018978623168	-0.000736817273751869	51.2346319131687	1528.08362369338	3	3	0	1	0	1	1
367.794477596283	7.76674709856513	panas_none	375.561224694848	72	5	12	10	n/a	n/a	n/a	n/a	n/a	n/a	n/a	n/a	2000	0	BLOCKED	n/a	n/a	+	0	enthusiastic	At this moment	2	3	11	221	NONE	n/a	0.410736579275905	n/a	n/a	n/a	n/a	1950.32838983051	0.476556495003843	n/a	n/a	n/a	n/a	1680.4919236417	7	4	0	1	0	1	1
376.564028704405	2.51670787000654	reward_rtpj	379.080736574411	73	1	13	10	750	250	250	250	0	0	0	0	2000	0	BLOCKED	0.75	-1	3	1	jittery	At this moment	5	3	11	221	RTPJ	651.60992538929	0.499375780274657	n/a	n/a	n/a	n/a	1683.90523690773	0.245196003074558	1195.24768067712	0.824221502680133	-9.30914301418681e-05	29.0021773996203	1813.71894093686	2	1	1	0	0	0	0
380.081420298576	2.51880100381373	reward_rtpj	382.60022130239	74	1	13	10	750	250	250	250	0	0	0	0	2000	0	BLOCKED	0.75	-1	0	1	strong	At this moment	5	3	11	221	RTPJ	1057.40532493591	0.49063670411985	n/a	n/a	n/a	n/a	1494.53921568627	0	1351.68736222059	-0.132512004665454	0.000266802765880606	12.9750929084433	1469.35895465027	1	2	1	0	0	0	0
383.584326390624	2.51874282205108	reward_rtpj	386.103069212675	75	1	13	10	750	250	250	250	0	0	0	0	2000	0	BLOCKED	0.75	-1	3	1	excited	At this moment	4	3	11	221	RTPJ	885.151619911194	0.481897627965044	n/a	n/a	n/a	n/a	1376.14457831325	0	1251.66562139689	0.307557112001566	-4.68393797769629e-05	23.6366189728425	1473.50576479631	1	3	1	0	0	0	0
387.106246996045	2.51629107677934	reward_rtpj	389.622538072824	76	1	13	10	750	250	250	250	0	0	0	0	2000	0	BLOCKED	0.75	1	9	1	attentive	At this moment	5	3	11	221	RTPJ	1170.2145216465	0.448189762796504	n/a	n/a	n/a	n/a	1420.58823529412	0	1174.47079136204	-0.230659060338078	0.00025967572549717	12.3804049072425	1202.59262106072	1	4	1	0	0	0	0
390.623463339686	2.51885565936567	reward_rtpj	393.142318999052	77	1	13	10	750	250	250	250	0	0	0	0	2000	0	BLOCKED	0.75	1	8	1	guilty	At this moment	5	3	11	221	RTPJ	729.757586479187	0.443196004993758	n/a	n/a	n/a	n/a	1668.30941704036	0	1314.5567250817	-0.0602457499716784	0.000300334118529506	24.8337521941877	1522.92006149116	1	5	1	0	0	0	0
394.126251305103	2.51877067875859	reward_rtpj	396.645021983862	78	1	13	10	750	250	250	250	0	0	0	0	2000	0	BLOCKED	0.75	1	2	-1	inspired	At this moment	1	3	11	221	RTPJ	740.122054815292	0.50561797752809	n/a	n/a	n/a	n/a	1990.91666666667	0.305918524212144	n/a	n/a	n/a	n/a	1826.46179401993	2	6	1	0	0	0	0
397.645787867785	2.51886165392398	reward_rtpj	400.164649521708	79	1	13	10	750	250	250	250	0	0	0	0	2000	0	BLOCKED	0.75	-1	4	1	scared	At this moment	4	3	11	221	RTPJ	941.34641122818	0.500624219725343	n/a	n/a	n/a	n/a	1593.9375	0.279016141429669	n/a	n/a	n/a	n/a	1859.98081023454	2	7	1	0	0	0	0
401.148656935096	2.53534332025049	reward_rtpj	403.684000255346	80	1	13	10	750	250	250	250	0	0	0	0	2000	0	BLOCKED	0.75	-1	6	-1	excited	At this moment	3	3	11	221	RTPJ	806.128058433533	0.474406991260924	n/a	n/a	n/a	n/a	1766.79097387173	0.275172943889316	n/a	n/a	n/a	n/a	1671.53446447508	2	8	1	0	0	0	0
404.684912122607	6.00482485699655	panas_none	410.689736979604	81	5	14	10	n/a	n/a	n/a	n/a	n/a	n/a	n/a	n/a	2000	0	BLOCKED	n/a	n/a	+	0	proud	At this moment	2	3	11	221	NONE	n/a	0.0786516853932584	-4473.7960322202	5.19040823478325	-0.00112868356671967	18.3972050133261	1400.71273712737	0.340507302075327	n/a	n/a	n/a	n/a	1255.54895104895	7	1	0	1	0	1	0
411.690477122307	6.00510412955282	panas_none	417.69558125186	82	5	14	10	n/a	n/a	n/a	n/a	n/a	n/a	n/a	n/a	2000	0	BLOCKED	n/a	n/a	+	0	attentive	At this moment	4	3	11	221	NONE	n/a	0.448189762796504	n/a	n/a	n/a	n/a	1452.26470588235	0.287471176018447	n/a	n/a	n/a	n/a	1814.82092772384	5	2	0	1	0	1	0
418.696286485672	6.00479065310958	panas_none	424.701077138782	83	5	14	10	n/a	n/a	n/a	n/a	n/a	n/a	n/a	n/a	2000	0	BLOCKED	n/a	n/a	+	0	irritable	At this moment	3	3	11	221	NONE	n/a	0	1416.09807623636	-0.542709956444983	0.000194020687336296	12.6959086976023	1142.14856429463	0.01076095311299	1639.29522020705	-0.684788034513546	0.000185913639179434	13.6157495062021	1168.23387723388	4	3	0	1	0	1	0
425.701906846404	14.7788020123243	panas_none	440.480708858728	84	5	14	10	n/a	n/a	n/a	n/a	n/a	n/a	n/a	n/a	2000	0	BLOCKED	n/a	n/a	+	0	scared	At this moment	4	3	11	221	NONE	n/a	0.419475655430712	n/a	n/a	n/a	n/a	1688.88602150538	0.299769408147579	n/a	n/a	n/a	n/a	1671.37321624588	10	4	0	1	0	1	0
441.46490880096	2.53519522106649	punish_vlpfc	444.000104022026	85	4	15	10	0	0	0	0	250	250	250	750	2000	0	BLOCKED	0.25	1	3	-1	hostile	At this moment	3	3	11	221	VLPFC	510.192567586899	0.476903870162297	n/a	n/a	n/a	n/a	1764.77565632458	0.243658724058417	916.240789148767	0.337827508694527	0.000157112488487334	38.6998407188199	1254.8993902439	2	1	0	0	1	0	0
445.006687731981	2.51302267086504	punish_vlpfc	447.519710402846	86	4	15	10	0	0	0	0	250	250	250	750	2000	0	BLOCKED	0.25	-1	8	-1	proud	At this moment	2	3	11	221	VLPFC	534.066141843796	0.469413233458177	n/a	n/a	n/a	n/a	1783.71058823529	0	1146.94396330759	0.000220240515233223	0.000309012875915689	24.578146272408	1414.24596464258	1	2	0	0	1	0	0
448.520413168192	2.51879571461677	punish_vlpfc	451.039208882809	87	4	15	10	0	0	0	0	250	250	250	750	2000	0	BLOCKED	0.25	1	3	-1	alert	At this moment	3	3	11	221	VLPFC	640.772597789764	0.901373283395755	n/a	n/a	n/a	n/a	1831.70886075949	0	1203.17141377581	0.490736081014895	-5.88789641412393e-05	31.1884981232325	1569.79323597233	1	3	0	0	1	0	0
452.039972298384	2.55214304685592	punish_vlpfc	454.59211534524	88	4	15	10	0	0	0	0	250	250	250	750	2000	0	BLOCKED	0.25	1	7	1	guilty	At this moment	3	3	11	221	VLPFC	707.077973127365	0.506866416978777	n/a	n/a	n/a	n/a	1619.67594936709	0.29054573405073	n/a	n/a	n/a	n/a	1567.90357529794	2	4	0	0	1	0	0
455.597269193769	2.53099802219867	punish_vlpfc	458.128267215967	89	4	15	10	0	0	0	0	250	250	250	750	2000	0	BLOCKED	0.25	1	4	-1	jittery	At this moment	3	3	11	221	VLPFC	1484.6475893259	0.491885143570537	n/a	n/a	n/a	n/a	1463.91154791155	0.279016141429669	n/a	n/a	n/a	n/a	1356.32302771855	2	5	0	0	1	0	0
459.134909107685	2.51348636198043	punish_vlpfc	461.648395469666	90	4	15	10	0	0	0	0	250	250	250	750	2000	0	BLOCKED	0.25	1	0	-1	enthusiastic	At this moment	2	3	11	221	VLPFC	884.605768918991	0.468164794007491	n/a	n/a	n/a	n/a	1847.80281690141	0.295926210607225	n/a	n/a	n/a	n/a	1703.69213973799	2	6	0	0	1	0	0
462.648675094962	2.51870720767971	punish_vlpfc	465.167382302642	91	4	15	10	0	0	0	0	250	250	250	750	2000	0	BLOCKED	0.25	-1	4	1	upset	At this moment	3	3	11	221	VLPFC	491.398439764977	0.488139825218477	n/a	n/a	n/a	n/a	1542.06585365854	0	1289.99845468352	0.371756359837666	3.76924135577556e-05	31.6529266062009	1638.77248270561	1	7	0	0	1	0	0
466.151537462473	2.51867124092581	punish_vlpfc	468.670208703399	92	4	15	10	0	0	0	0	250	250	250	750	2000	0	BLOCKED	0.25	-1	7	-1	strong	At this moment	5	3	11	221	VLPFC	991.733249664307	0.519350811485643	n/a	n/a	n/a	n/a	1648.43116883117	0	1158.67139656385	0.318913389737476	6.59675090880393e-05	23.0647741852528	1486.47732513451	1	8	0	0	1	0	0
469.654361395001	6.00497366118435	panas_none	475.659335056186	93	5	16	10	n/a	n/a	n/a	n/a	n/a	n/a	n/a	n/a	2000	0	BLOCKED	n/a	n/a	+	0	alert	At this moment	3	3	11	221	NONE	n/a	0.466916354556804	n/a	n/a	n/a	n/a	1174.92740046838	0.235203689469639	1611.38905482655	-1.35985927544729	0.000768932590455426	20.9973555525596	1155.39497487437	5	1	0	1	0	0	1
476.643333654165	6.0047434024811	panas_none	482.648077056646	94	5	16	10	n/a	n/a	n/a	n/a	n/a	n/a	n/a	n/a	2000	0	BLOCKED	n/a	n/a	+	0	hostile	At this moment	2	3	11	221	NONE	n/a	0.50936329588015	n/a	n/a	n/a	n/a	1456.18066157761	0.263643351268255	n/a	n/a	n/a	n/a	1482.83507306889	3	2	0	1	0	0	1
483.649180042386	6.00470884597303	panas_none	489.653888888359	95	5	16	10	n/a	n/a	n/a	n/a	n/a	n/a	n/a	n/a	2000	0	BLOCKED	n/a	n/a	+	0	irritable	At this moment	3	3	11	221	NONE	n/a	0	577.350129929538	0.198454015888976	-4.99076846543036e-06	8.91136724845102	971.810237203496	0.172943889315911	1253.79970143109	-0.304221529606643	3.85981561846804e-05	19.6824492082328	974.839219330855	5	3	0	1	0	0	1
490.654906893253	5.15435310840604	panas_none	495.809260001659	96	5	16	10	n/a	n/a	n/a	n/a	n/a	n/a	n/a	n/a	2000	0	BLOCKED	n/a	n/a	+	0	enthusiastic	At this moment	5	3	11	221	NONE	n/a	0.629213483146067	n/a	n/a	n/a	n/a	1665.73063973064	0.491160645657187	n/a	n/a	n/a	n/a	1736.31570996979	6	4	0	1	0	0	1
