onset	duration	trial_type	offset	trial	block	blockCntr	frequency	amplitude_1	amplitude_2	amplitude_3	amplitude_4	amplitude_5	amplitude_6	amplitude_7	amplitude_8	transition	sham	mode	rewardFraction	guess	outcome	correct	word	when	answer	runNr	scanNr	subjectNr	target	reactionTime	outcomeEyeClosed	outcomeParms_1	outcomeParms_2	outcomeParms_3	outcomeSigma	outcomePupilArea	guessEyeClosed	guessParms_1	guessParms_2	guessParms_3	guessSigma	guessPupilArea	nrBlinks	trialInBlock	isReward	isPanas	isPunish	beforePanasReward	beforePanasVLPFC
20.3359148415923	2.51412036716938	reward_rtpj	22.8500352087617	1	1	1	10	750	250	250	250	0	0	0	0	500	0	BLOCKED	0.75	1	7	1	upset	At this moment	1	3	14	208	RTPJ	-31163.3822166324	0.337078651685393	n/a	n/a	n/a	n/a	1181.35404896422	0.289008455034589	n/a	n/a	n/a	n/a	1283.09189189189	5	1	1	0	0	0	0
23.8509252138436	2.51862822154164	reward_rtpj	26.3695534353852	2	1	1	10	750	250	250	250	0	0	0	0	500	0	BLOCKED	0.75	1	0	-1	afraid	At this moment	3	3	14	208	RTPJ	324.53836274147	0.374531835205993	n/a	n/a	n/a	n/a	1142.48902195609	0	-19.5297408244073	1.91798893544269	-0.00064743329970625	16.6197250541766	1076.53651037663	1	2	1	0	0	0	0
27.3703916057348	2.51871214437485	reward_rtpj	29.8891037501097	3	1	1	10	750	250	250	250	0	0	0	0	500	0	BLOCKED	0.75	1	10	1	irritable	At this moment	2	3	14	208	RTPJ	457.679449379444	0.400749063670412	n/a	n/a	n/a	n/a	1047.07291666667	0	100.815465753044	1.9335869818703	-0.000724134467896389	21.8892747004313	1146.07532667179	1	3	1	0	0	0	0
30.8731704031527	2.51877596801519	reward_rtpj	33.3919463711679	4	1	1	10	750	250	250	250	0	0	0	0	500	0	BLOCKED	0.75	1	10	1	guilty	At this moment	5	3	14	208	RTPJ	524.903039187193	0.395755305867665	n/a	n/a	n/a	n/a	993.00826446281	0	322.172632238426	1.27453226332689	-0.000435617256249301	38.667185658487	1030.07302075327	1	4	1	0	0	0	0
34.376016903013	2.51877843636274	reward_rtpj	36.8947953393757	5	1	1	10	750	250	250	250	0	0	0	0	500	0	BLOCKED	0.75	1	10	1	interested	At this moment	4	3	14	208	RTPJ	541.904462695122	0	11142.903911506	-9.83911308487966	0.00231872664342893	14.4665905255069	823.992509363296	0	190.436609179992	1.68697588108248	-0.000773251058444113	54.838688820291	957.182167563413	0	5	1	0	0	0	0
37.8989526925385	2.51551461437344	reward_rtpj	40.4144673069119	6	1	1	10	750	250	250	250	0	0	0	0	500	0	BLOCKED	0.75	1	0	-1	jittery	At this moment	3	3	14	208	RTPJ	487.009417355061	0	6316.43880726402	-4.75490833224034	0.00105055264355324	23.9751152428678	1020.05118601748	0	304.242617688172	0.86717731462421	-0.000181380986955897	57.9087027033769	886.610299769408	0	6	1	0	0	0	0
41.4151605517566	2.51870579725504	reward_rtpj	43.9338663490117	7	1	1	10	750	250	250	250	0	0	0	0	500	0	BLOCKED	0.75	-1	2	1	attentive	At this moment	3	3	14	208	RTPJ	1472.54683545232	0	14373.6818301696	-12.7142006182972	0.00297071075648903	37.1951588477134	930.560549313358	0	139.330274797819	1.4955323108163	-0.000541095536578827	25.8853496463843	961.314373558801	0	7	1	0	0	0	0
44.9346731364727	2.51881757682562	reward_rtpj	47.4534907132983	8	1	1	10	750	250	250	250	0	0	0	0	500	0	BLOCKED	0.75	-1	1	1	irritable	At this moment	3	3	14	208	RTPJ	1472.08772826195	0	16571.7475663766	-14.3278433411159	0.00327016428531664	26.7278825506752	1052.22222222222	0	610.548366178544	0.654881391012798	-0.000143510039365585	23.4842280176849	1043.8854727133	1	8	1	0	0	0	0
48.4576741600931	6.01811005106568	panas_none	54.4757842111588	9	5	2	10	n/a	n/a	n/a	n/a	n/a	n/a	n/a	n/a	500	0	BLOCKED	n/a	n/a	+	0	upset	At this moment	1	3	14	208	NONE	n/a	0	-2344.80834315199	2.61408362405218	-0.000572645151831663	14.3061553482768	589.027465667915	0	163.961433820774	0.989871161150483	-0.000504574254306947	63.1490774689807	581.305149884704	2	1	0	1	0	1	0
55.476511659801	6.02171309044957	panas_none	61.4982247502506	10	5	2	10	n/a	n/a	n/a	n/a	n/a	n/a	n/a	n/a	500	0	BLOCKED	n/a	n/a	+	0	jittery	At this moment	4	3	14	208	NONE	n/a	0	-397.48093645391	0.961220363244622	-0.000183820822843411	19.2313977175602	800.464419475655	0	814.153771177527	-0.0309204436051786	-2.44799469791321e-05	47.431800203028	766.013835511145	3	2	0	1	0	1	0
62.4993361986876	6.021100594908	panas_none	68.5204367935956	11	5	2	10	n/a	n/a	n/a	n/a	n/a	n/a	n/a	n/a	500	0	BLOCKED	n/a	n/a	+	0	ashamed	At this moment	3	3	14	208	NONE	n/a	0	-1186.99169497375	1.72987512308802	-0.000399038832189225	16.5863281156075	664.965043695381	0.234435049961568	812.202687862771	-0.165546488778044	3.28855203066233e-05	14.6039618147754	681.218875502008	3	3	0	1	0	1	0
69.5213920327723	9.60774473637343	panas_none	79.1291367691457	12	5	2	10	n/a	n/a	n/a	n/a	n/a	n/a	n/a	n/a	500	0	BLOCKED	n/a	1	10	1	inspired	At this moment	2	3	14	208	NONE	n/a	0	-630.732958830248	1.73639495287722	-0.000389450273594959	36.952986736229	1277.86142322097	0	759.861110042016	0.508306564736397	-0.000129350777432331	18.5942636187327	1080.8670253651	2	4	0	1	0	1	0
80.1299992700815	2.51866559892892	punish_vlpfc	82.6486648690104	13	4	3	10	0	0	0	0	250	250	250	750	500	0	BLOCKED	0.25	1	4	-1	determined	At this moment	4	3	14	208	VLPFC	524.212615281343	0.233458177278402	5023.88954551574	-3.10220951437478	0.000598879243800196	34.5682452043993	1229.20684039088	0	177.47181809559	1.43032316811514	-0.000464782155695531	18.9488223429588	1004.67486548809	1	1	0	0	1	0	0
83.6495337170362	2.51871496531368	punish_vlpfc	86.1682486823499	14	4	3	10	0	0	0	0	250	250	250	750	500	0	BLOCKED	0.25	-1	10	-1	jittery	At this moment	3	3	14	208	VLPFC	1472.14696788788	1	n/a	n/a	n/a	n/a	n/a	1	n/a	n/a	n/a	n/a	n/a	2	2	0	0	1	0	0
87.1690597012043	2.51867476695776	punish_vlpfc	89.6877344681621	15	4	3	10	0	0	0	0	250	250	250	750	500	0	BLOCKED	0.25	-1	10	-1	scared	At this moment	3	3	14	208	VLPFC	490.212941795588	0.374531835205993	n/a	n/a	n/a	n/a	1299.82834331337	0	491.729691529156	1.07283987692557	-0.000280325776693954	16.1308740785266	1162.12759415834	1	3	0	0	1	0	0
90.6884756689072	2.51872519117595	punish_vlpfc	93.2072008600831	16	4	3	10	0	0	0	0	250	250	250	750	500	0	BLOCKED	0.25	1	1	-1	distressed	At this moment	3	3	14	208	VLPFC	323.203355193138	0.374531835205993	n/a	n/a	n/a	n/a	1213.19361277445	0	640.686915627493	0.816843877942192	-0.000250674712094819	41.1780852671819	1118.99923136049	1	4	0	0	1	0	0
94.2080929808319	2.51869909754396	punish_vlpfc	96.7267920783758	17	4	3	10	0	0	0	0	250	250	250	750	500	0	BLOCKED	0.25	1	7	1	determined	At this moment	2	3	14	208	VLPFC	423.636051386595	0.354556803995006	n/a	n/a	n/a	n/a	1044.57640232108	0	735.637565494638	0.679089515705518	-0.000196794548210758	27.2434767605253	1142.50422751729	2	5	0	0	1	0	0
97.7277159346342	2.51863774222136	punish_vlpfc	100.246353676856	18	4	3	10	0	0	0	0	250	250	250	750	500	0	BLOCKED	0.25	1	9	1	jittery	At this moment	4	3	14	208	VLPFC	290.061598658562	0.388264669163546	n/a	n/a	n/a	n/a	840.673469387755	0	208.806135076165	1.58560250342882	-0.000690746810488622	40.3071415771848	962.561106840892	1	6	0	0	1	0	0
101.247474645972	2.51830839800836	punish_vlpfc	103.765783043981	19	4	3	10	0	0	0	0	250	250	250	750	500	0	BLOCKED	0.25	1	2	-1	attentive	At this moment	2	3	14	208	VLPFC	423.510519772768	0	2264.87083843954	-1.01733480523426	0.000200472283008652	14.7231093056113	1023.37702871411	0.382782475019216	n/a	n/a	n/a	n/a	968.915317559153	2	7	0	0	1	0	0
104.768512651354	2.51696104887128	punish_vlpfc	107.285473700225	20	4	3	10	0	0	0	0	250	250	250	750	500	0	BLOCKED	0.25	1	2	-1	alert	At this moment	2	3	14	208	VLPFC	288.832376152277	0	5699.09968942336	-4.33437200166568	0.000962023357044125	33.8170119447382	890.30836454432	0.496541122213682	n/a	n/a	n/a	n/a	1029.54045801527	3	8	0	0	1	0	0
108.286197622716	6.02149834674597	panas_none	114.307695969462	21	5	4	10	n/a	n/a	n/a	n/a	n/a	n/a	n/a	n/a	500	0	BLOCKED	n/a	n/a	+	0	hostile	At this moment	2	3	14	208	NONE	n/a	0.274656679151061	n/a	n/a	n/a	n/a	557.695352839931	0	231.261770644573	0.747209528965242	-0.000353245809711226	69.3131649872718	563.6095311299	2	1	0	1	0	0	1
115.291929057717	6.02152479299903	panas_none	121.313453850716	22	5	4	10	n/a	n/a	n/a	n/a	n/a	n/a	n/a	n/a	500	0	BLOCKED	n/a	n/a	+	0	enthusiastic	At this moment	4	3	14	208	NONE	n/a	0	1557.55959527951	-1.17497933012634	0.000342279092678976	17.1214684398814	616.503121098627	0.229823212913144	694.326677038084	-0.210913353321353	0.000118165652389235	10.141085180726	622.625748502994	3	2	0	1	0	0	1
122.314240186393	6.02175716754793	panas_none	128.335997353941	23	5	4	10	n/a	n/a	n/a	n/a	n/a	n/a	n/a	n/a	500	0	BLOCKED	n/a	n/a	+	0	ashamed	At this moment	3	3	14	208	NONE	n/a	0	-732.995724281834	1.23051451274833	-0.000254208529719144	12.8747948938198	715.993757802747	0	609.581062021441	0.106344613493815	-0.000100149945784559	16.0833446655076	613.97617217525	2	3	0	1	0	0	1
129.336628538162	13.0939805122912	panas_none	142.430609050453	24	5	4	10	n/a	n/a	n/a	n/a	n/a	n/a	n/a	n/a	500	0	BLOCKED	n/a	n/a	+	0	proud	At this moment	2	3	14	208	NONE	n/a	0	2900.51363383614	-1.81264701760941	0.000459982282583362	10.8804328558781	1147.06741573034	0.304381245196003	n/a	n/a	n/a	n/a	838.186740331492	3	4	0	1	0	0	1
143.431445105106	2.51868746119737	reward_vlpfc	145.950132566303	25	2	5	10	0	0	0	0	250	250	250	750	500	0	BLOCKED	0.75	1	2	-1	attentive	At this moment	2	3	14	208	VLPFC	673.737340629101	0.114856429463171	906.118579347086	0.491504889821404	-0.000200727085799648	30.906203975344	1060.96473906911	0.594158339738663	n/a	n/a	n/a	n/a	952.121212121212	6	1	1	0	0	0	0
146.950894571394	2.51868781384826	reward_vlpfc	149.469582385242	26	2	5	10	0	0	0	0	250	250	250	750	500	0	BLOCKED	0.75	1	8	1	inspired	At this moment	3	3	14	208	VLPFC	423.289781659842	0.696629213483146	n/a	n/a	n/a	n/a	936.98353909465	0	80.2510207154082	1.36880734964294	-0.000480421693492187	27.2504794802022	840.272098385857	2	2	1	0	0	0	0
150.453805952787	2.51872836476565	reward_vlpfc	152.972534317553	27	2	5	10	0	0	0	0	250	250	250	750	500	0	BLOCKED	0.75	1	8	1	hostile	At this moment	4	3	14	208	VLPFC	773.208450525999	0	10243.9426996301	-8.88374452898417	0.00208283365911064	21.0571412466108	884.922596754057	0.0115295926210607	334.453969254228	0.976512594873592	-0.000321787089604347	21.4508183610968	888.207620528771	1	3	1	0	0	0	0
153.973335815728	2.51870720776915	reward_vlpfc	156.492043023497	28	2	5	10	0	0	0	0	250	250	250	750	500	0	BLOCKED	0.75	1	8	1	alert	At this moment	2	3	14	208	VLPFC	623.238017469645	0	15651.0616969195	-13.3768542260563	0.00300688711113917	19.0008217861981	949.575530586766	0.268255188316679	n/a	n/a	n/a	n/a	800.406512605042	1	4	1	0	0	0	0
157.492791981757	2.51880699831247	reward_vlpfc	160.011598980069	29	2	5	10	0	0	0	0	250	250	250	750	500	0	BLOCKED	0.75	1	0	-1	guilty	At this moment	3	3	14	208	VLPFC	423.674839287996	0	-1401.94848658034	2.97297284600027	-0.000814354483405304	16.9012518868175	1206.47315855181	0.246733282090699	372.564227477102	0.963044505366415	-0.000279453517586955	44.2637556959376	882.587755102041	2	5	1	0	0	0	0
161.013088433832	2.51803511995075	reward_vlpfc	163.531123553783	30	2	5	10	0	0	0	0	250	250	250	750	500	0	BLOCKED	0.75	1	7	1	ashamed	At this moment	5	3	14	208	VLPFC	455.76438704133	0.425717852684145	n/a	n/a	n/a	n/a	929.676086956522	0.279016141429669	n/a	n/a	n/a	n/a	1027.13752665245	2	6	1	0	0	0	0
164.531933867395	2.5186983923316	reward_vlpfc	167.050632259727	31	2	5	10	0	0	0	0	250	250	250	750	500	0	BLOCKED	0.75	1	9	1	hostile	At this moment	5	3	14	208	VLPFC	406.324325025082	0	8948.44716231147	-7.30172119837439	0.0016417185781472	33.9629389264565	943.605493133583	0.609531129900077	n/a	n/a	n/a	n/a	741.763779527559	2	7	1	0	0	0	0
168.051373460412	2.51879042533039	reward_vlpfc	170.570163885742	32	2	5	10	0	0	0	0	250	250	250	750	500	0	BLOCKED	0.75	1	10	1	proud	At this moment	2	3	14	208	VLPFC	473.882548242807	0	11778.9730459656	-9.89668395756969	0.00222083287250535	25.4261366304818	902.368289637953	0.45196003074558	n/a	n/a	n/a	n/a	844.848527349229	4	8	1	0	0	0	0
171.570937174588	6.02158791145683	panas_none	177.592525086045	33	5	6	10	n/a	n/a	n/a	n/a	n/a	n/a	n/a	n/a	500	0	BLOCKED	n/a	n/a	+	0	upset	At this moment	1	3	14	208	NONE	n/a	0.435705368289638	n/a	n/a	n/a	n/a	608.986725663717	0	356.654187919437	0.417069399636422	-0.00021737858202942	59.6282564567855	527.595695618755	3	1	0	1	0	1	1
178.593355498821	6.02154524478314	panas_none	184.614900743604	34	5	6	10	n/a	n/a	n/a	n/a	n/a	n/a	n/a	n/a	500	0	BLOCKED	n/a	n/a	+	0	excited	At this moment	3	3	14	208	NONE	n/a	0	1045.8798981685	-0.332727978938908	7.12822537147279e-05	23.2456711961288	665.340823970037	0	781.123933459122	-0.117213230801758	1.43665756303155e-05	16.4478505242349	693.94004611837	5	2	0	1	0	1	1
185.615770296901	6.02163551470636	panas_none	191.637405811608	35	5	6	10	n/a	n/a	n/a	n/a	n/a	n/a	n/a	n/a	500	0	BLOCKED	n/a	n/a	+	0	alert	At this moment	5	3	14	208	NONE	n/a	0	2903.78972315616	-2.15632947001031	0.000526773781882621	13.2469654188368	726.383270911361	0	838.225181396613	-0.310218598860824	0.000184849026018559	17.3567256918798	734.026902382783	2	3	0	1	0	1	1
192.638245392442	5.62108881747724	panas_none	198.259334209919	36	5	6	10	n/a	n/a	n/a	n/a	n/a	n/a	n/a	n/a	500	0	BLOCKED	n/a	n/a	+	0	interested	At this moment	4	3	14	208	NONE	n/a	0	1226.13742226863	0.251025113646805	-0.000126643110217133	40.1605985897658	1187.99126092385	0.272098385857033	n/a	n/a	n/a	n/a	982.937697993664	5	4	0	1	0	1	1
199.260189305902	2.51870579725505	punish_rtpj	201.778895103157	37	3	7	10	750	250	250	250	0	0	0	0	500	0	BLOCKED	0.25	1	9	1	strong	At this moment	3	3	14	208	RTPJ	506.279577940702	0.403245942571785	n/a	n/a	n/a	n/a	851.910041841004	0	317.856419631815	1.25010224355181	-0.000410248899631003	34.2625644818807	1026.94850115296	1	1	0	0	1	0	0
202.762958230048	2.51880065122248	punish_rtpj	205.281758881271	38	3	7	10	750	250	250	250	0	0	0	0	500	0	BLOCKED	0.25	1	1	-1	nervous	At this moment	2	3	14	208	RTPJ	690.901673138142	0	1738.28053147533	-0.352461399713126	-7.59819321924922e-06	18.330869950591	964.089887640449	0	412.703298875377	1.0215580633719	-0.000330561262274868	30.0366167801246	997.024596464258	0	2	0	0	1	0	0
206.282522649437	2.51872166502474	punish_rtpj	208.801244314462	39	3	7	10	750	250	250	250	0	0	0	0	500	0	BLOCKED	0.25	1	2	-1	afraid	At this moment	1	3	14	208	RTPJ	523.95626282692	0	-2898.02336790901	3.5454026529767	-0.000786193077102316	12.6611255773707	1040.01123595506	0.200614911606457	492.010316650549	0.683448962665198	-0.000183235501384522	10.9939110985539	872.634615384615	2	3	0	0	1	0	0
209.802057801664	2.518712849617	punish_rtpj	212.320770651281	40	3	7	10	750	250	250	250	0	0	0	0	500	0	BLOCKED	0.25	1	0	-1	irritable	At this moment	3	3	14	208	RTPJ	456.735846579075	0.484394506866417	n/a	n/a	n/a	n/a	1206.86198547215	0.310530361260569	n/a	n/a	n/a	n/a	1053.34559643255	3	4	0	0	1	0	0
213.321529130191	2.51879113057257	punish_rtpj	215.840320260763	41	3	7	10	750	250	250	250	0	0	0	0	500	0	BLOCKED	0.25	1	2	-1	enthusiastic	At this moment	5	3	14	208	RTPJ	590.150916516781	0	5725.11148694448	-3.97324480955869	0.000825448551144367	12.5496926620262	1056.23470661673	0.324365872405842	n/a	n/a	n/a	n/a	906.953356086462	2	5	0	0	1	0	0
216.841292425513	2.51859719130397	punish_rtpj	219.359889616817	42	3	7	10	750	250	250	250	0	0	0	0	500	0	BLOCKED	0.25	-1	10	-1	attentive	At this moment	2	3	14	208	RTPJ	506.82613414526	0.397003745318352	n/a	n/a	n/a	n/a	954.072463768116	0	240.113475276372	1.21673309980652	-0.000397001342795808	20.0156251331384	942.600307455803	1	6	0	0	1	0	0
220.360645274818	2.51878584128616	punish_rtpj	222.879431116104	43	3	7	10	750	250	250	250	0	0	0	0	500	0	BLOCKED	0.25	-1	3	1	proud	At this moment	2	3	14	208	RTPJ	406.995707571507	0.675405742821473	n/a	n/a	n/a	n/a	992.296153846154	0.439661798616449	n/a	n/a	n/a	n/a	950.249657064472	5	7	0	0	1	0	0
223.880201584011	2.51871743363142	punish_rtpj	226.398919017643	44	3	7	10	750	250	250	250	0	0	0	0	500	0	BLOCKED	0.25	-1	7	-1	strong	At this moment	2	3	14	208	RTPJ	356.378610402346	0.458177278401998	n/a	n/a	n/a	n/a	971	0.296694850115296	n/a	n/a	n/a	n/a	935.473224043716	3	8	0	0	1	0	0
227.399707469016	6.02155688115954	panas_none	233.421264350176	45	5	8	10	n/a	n/a	n/a	n/a	n/a	n/a	n/a	n/a	500	0	BLOCKED	n/a	n/a	+	0	irritable	At this moment	3	3	14	208	NONE	n/a	0	-3012.50237630875	3.18105523424708	-0.000684370603291382	17.6268710662994	613.495630461923	0	451.366246194203	0.368535347995574	-0.000223706636914914	60.5186462042031	576.297463489623	2	1	0	1	0	0	0
234.422090884179	6.02149869936704	panas_none	240.443589583546	46	5	8	10	n/a	n/a	n/a	n/a	n/a	n/a	n/a	n/a	500	0	BLOCKED	n/a	n/a	+	0	interested	At this moment	3	3	14	208	NONE	n/a	0.35705368289638	n/a	n/a	n/a	n/a	600.545631067961	0	709.631582484754	-0.0965067922590763	5.71649976771001e-05	25.5664413585392	676.063028439662	4	2	0	1	0	0	0
241.444766618758	6.02131710165739	panas_none	247.466083720416	47	5	8	10	n/a	n/a	n/a	n/a	n/a	n/a	n/a	n/a	500	0	BLOCKED	n/a	n/a	+	0	active	At this moment	5	3	14	208	NONE	n/a	0	1153.4840565592	-0.352788021091971	6.7942534989837e-05	28.9917470129115	716.684144818976	0.229823212913144	757.423208238194	-0.110616460099895	6.43737796784655e-05	11.235692777762	720.725548902196	2	3	0	1	0	0	0
248.466758276552	5.30436902904512	panas_none	253.771127305597	48	5	8	10	n/a	n/a	n/a	n/a	n/a	n/a	n/a	n/a	500	0	BLOCKED	n/a	n/a	+	0	inspired	At this moment	2	3	14	208	NONE	n/a	0.428214731585518	n/a	n/a	n/a	n/a	1239.56986899563	0	407.93285876166	0.725391023823446	-0.000119788776893795	13.0146863218106	955.355880092237	5	4	0	1	0	0	0
254.755395655543	2.5186246953607	reward_rtpj	257.274020350903	49	1	9	10	750	250	250	250	0	0	0	0	500	0	BLOCKED	0.75	1	9	1	irritable	At this moment	3	3	14	208	RTPJ	656.492611438036	0	10973.5809019451	-9.11446962383837	0.0020567576074396	15.7130952338786	1000.48314606742	0.246733282090699	343.782337733518	1.27513174902737	-0.000414315384105227	43.727679242687	1029.74285714286	1	1	1	0	0	0	0
258.274819733441	2.51870403417945	reward_rtpj	260.79352376762	50	1	9	10	750	250	250	250	0	0	0	0	500	0	BLOCKED	0.75	1	2	-1	attentive	At this moment	4	3	14	208	RTPJ	641.250040978193	0.339575530586767	n/a	n/a	n/a	n/a	1091.88279773157	0.533435818601076	n/a	n/a	n/a	n/a	856.189456342669	5	2	1	0	0	0	0
261.794298466891	2.51871002867819	reward_rtpj	264.313008495569	51	1	9	10	750	250	250	250	0	0	0	0	500	0	BLOCKED	0.75	1	7	1	scared	At this moment	5	3	14	208	RTPJ	339.617319017649	0	10177.9573282418	-8.64199686142495	0.00198299071489028	21.3616235472954	872.277153558052	0	-27.9001244207729	1.93256184373475	-0.000858177124208707	45.7350488760816	882.876249039201	0	3	1	0	0	0	0
265.313890743077	2.518675824821	reward_rtpj	267.832566567898	52	1	9	10	750	250	250	250	0	0	0	0	500	0	BLOCKED	0.75	-1	6	-1	afraid	At this moment	1	3	14	208	RTPJ	1473.74326455593	0	624.870722177475	0.764664443982352	-0.000237493406839048	35.8093828081132	1170.93632958802	0.362029208301307	n/a	n/a	n/a	n/a	1008.11204819277	2	4	1	0	0	0	0
268.833410380125	2.51869275045397	reward_rtpj	271.352103130579	53	1	9	10	750	250	250	250	0	0	0	0	500	0	BLOCKED	0.75	1	9	1	excited	At this moment	1	3	14	208	RTPJ	489.768997132778	0.637952559300874	n/a	n/a	n/a	n/a	1084.19655172414	0.169100691775557	265.54225907688	1.16402808781161	-0.000399487141896674	22.4394459192266	876.63829787234	5	5	1	0	0	0	0
272.352862667352	2.51879959335923	reward_rtpj	274.871662260711	54	1	9	10	750	250	250	250	0	0	0	0	500	0	BLOCKED	0.75	1	7	1	ashamed	At this moment	1	3	14	208	RTPJ	706.889323085546	0.64294631710362	n/a	n/a	n/a	n/a	1036.3041958042	0	522.129214900957	0.702218951670373	-0.000140583940523555	49.3690638444096	997.298232129131	2	6	1	0	0	0	0
275.872497962743	2.51866489371656	reward_rtpj	278.39116285646	55	1	9	10	750	250	250	250	0	0	0	0	500	0	BLOCKED	0.75	1	6	1	scared	At this moment	4	3	14	208	RTPJ	656.517647236586	0	13517.9081407072	-11.7012757289667	0.00269997338986402	19.5156278194303	969.205992509363	0.366641045349731	n/a	n/a	n/a	n/a	1031.94296116505	2	7	1	0	0	0	0
279.391995737553	2.51870932343604	reward_rtpj	281.910705060989	56	1	9	10	750	250	250	250	0	0	0	0	500	0	BLOCKED	0.75	1	10	1	enthusiastic	At this moment	2	3	14	208	RTPJ	122.682116925716	0.963795255930087	n/a	n/a	n/a	n/a	237.724137931034	0	467.706751742576	0.830536978821752	-0.00027923992671125	46.7046572578892	935.068408916218	2	8	1	0	0	0	0
282.911410294801	6.02171167996528	panas_none	288.933121974766	57	5	10	10	n/a	n/a	n/a	n/a	n/a	n/a	n/a	n/a	500	0	BLOCKED	n/a	n/a	+	0	guilty	At this moment	1	3	14	208	NONE	n/a	0	-403.331257986586	0.672818712075639	-9.1417052506815e-05	12.00941245101	601.495630461923	0.0184473481936972	825.311508057266	-0.231419899875411	8.60318873877293e-05	89.4662840271881	701.954581049334	3	1	0	1	0	1	0
289.933887506008	6.02159073239562	panas_none	295.955478238404	58	5	10	10	n/a	n/a	n/a	n/a	n/a	n/a	n/a	n/a	500	0	BLOCKED	n/a	n/a	+	0	strong	At this moment	4	3	14	208	NONE	n/a	0	3413.98415068201	-2.487368327439	0.000571952201047783	12.5490139963405	743.249687890137	0	728.967797119143	0.655181708875819	-0.000375016468314934	14.8766354653155	961.564181398924	3	2	0	1	0	1	0
296.956174656779	6.02168382322787	panas_none	302.977858480006	59	5	10	10	n/a	n/a	n/a	n/a	n/a	n/a	n/a	n/a	500	0	BLOCKED	n/a	n/a	+	0	distressed	At this moment	4	3	14	208	NONE	n/a	0	-945.645029644111	1.479420264593	-0.000340696314094947	12.7141377704077	642.152309612984	0	610.440173755498	0.128343143809714	-5.98264368957188e-05	20.3769433672518	668.491929285165	3	3	0	1	0	1	0
303.978652573287	12.4267478954792	panas_none	316.405400468767	60	5	10	10	n/a	n/a	n/a	n/a	n/a	n/a	n/a	n/a	500	0	BLOCKED	n/a	n/a	+	0	ashamed	At this moment	4	3	14	208	NONE	n/a	0	2675.31073968969	-1.45348788166142	0.000344809064033419	13.5169730289083	1162.22596754057	0.495772482705611	n/a	n/a	n/a	n/a	927.769817073171	8	4	0	1	0	1	0
317.389559154838	2.51875375315547	punish_vlpfc	319.908312907994	61	4	11	10	0	0	0	0	250	250	250	750	500	0	BLOCKED	0.25	1	8	1	inspired	At this moment	1	3	14	208	VLPFC	339.941726535559	0	15640.2284221642	-13.3794682632556	0.00304817671155997	20.2345817721644	1126.08739076155	0.45119139123751	n/a	n/a	n/a	n/a	1238.65826330532	1	1	0	0	1	0	0
320.909004037082	2.5187336539924	punish_vlpfc	323.427737691075	62	4	11	10	0	0	0	0	250	250	250	750	500	0	BLOCKED	0.25	1	0	-1	attentive	At this moment	3	3	14	208	VLPFC	489.92837998271	0	10088.4801036532	-7.90423162107452	0.00172120424347147	28.7365022616136	1167.71161048689	0.395080707148347	n/a	n/a	n/a	n/a	1116.65438373571	2	2	0	0	1	0	0
324.428629811853	2.51866736200452	punish_vlpfc	326.947297173858	63	4	11	10	0	0	0	0	250	250	250	750	500	0	BLOCKED	0.25	1	3	-1	hostile	At this moment	2	3	14	208	VLPFC	589.83744007349	0.471910112359551	n/a	n/a	n/a	n/a	958.13475177305	0	443.734747143632	0.884498959177118	-0.00025427236823538	20.385165785864	976.484242890085	1	3	0	0	1	0	0
327.94800875476	2.51886694318051	punish_vlpfc	330.466875697941	64	4	11	10	0	0	0	0	250	250	250	750	500	0	BLOCKED	0.25	1	1	-1	active	At this moment	2	3	14	208	VLPFC	489.835289120674	0	6620.32706062419	-5.11584801447221	0.00117614728060588	22.0966173291164	1125.98252184769	0.617986164488855	n/a	n/a	n/a	n/a	836.841046277666	7	4	0	0	1	0	0
331.467564358741	2.51893499824399	punish_vlpfc	333.986499356985	65	4	11	10	0	0	0	0	250	250	250	750	500	0	BLOCKED	0.25	1	0	-1	inspired	At this moment	3	3	14	208	VLPFC	239.646903544664	0.737827715355805	n/a	n/a	n/a	n/a	1411.92380952381	0.392006149116065	n/a	n/a	n/a	n/a	1032.07458912769	5	5	0	0	1	0	0
334.987169681698	2.51876010027524	punish_vlpfc	337.505929781973	66	4	11	10	0	0	0	0	250	250	250	750	500	0	BLOCKED	0.25	-1	10	-1	excited	At this moment	2	3	14	208	VLPFC	206.494215846062	0	7405.57944331686	-5.75469844760336	0.00129982618917797	11.2528754176075	1113.37827715356	0.680245964642583	n/a	n/a	n/a	n/a	1263.93509615385	4	6	0	0	1	0	0
338.506702718198	2.51875904244184	punish_vlpfc	341.02546176064	67	4	11	10	0	0	0	0	250	250	250	750	500	0	BLOCKED	0.25	1	7	1	scared	At this moment	4	3	14	208	VLPFC	306.169490963221	0.952559300873908	n/a	n/a	n/a	n/a	1225.89473684211	0	404.725593657353	1.05589684448902	-0.000302206874149051	38.5139390416361	1041.43274404304	5	7	0	0	1	0	0
342.026213539839	2.51877314707633	punish_vlpfc	344.544986686915	68	4	11	10	0	0	0	0	250	250	250	750	500	0	BLOCKED	0.25	-1	10	-1	upset	At this moment	2	3	14	208	VLPFC	240.564412713051	0	6842.1832901586	-5.59277006091054	0.00131015645328432	24.5598573031738	945.774032459426	0.5695618754804	n/a	n/a	n/a	n/a	1142.54821428571	3	8	0	0	1	0	0
345.545784306347	6.02152690872555	panas_none	351.567311215073	69	5	12	10	n/a	n/a	n/a	n/a	n/a	n/a	n/a	n/a	500	0	BLOCKED	n/a	n/a	+	0	proud	At this moment	2	3	14	208	NONE	n/a	0	-3284.41372265685	3.67412880104907	-0.000841579310547791	16.7298324923893	675.298377028714	0	329.749210634785	0.416484519724159	-0.000166211286775551	70.9504725522054	542.661029976941	2	1	0	1	0	0	1
352.56824423936	6.0215205616355	panas_none	358.589764800996	70	5	12	10	n/a	n/a	n/a	n/a	n/a	n/a	n/a	n/a	500	0	BLOCKED	n/a	n/a	+	0	guilty	At this moment	1	3	14	208	NONE	n/a	0	-1138.34233317984	1.52828224975114	-0.000302781959284987	17.6678796646168	719.873907615481	0.240584166026134	697.913238362659	-0.364291806172217	0.000334911093733818	13.8226971448325	668.593117408907	4	2	0	1	0	0	1
359.573830396205	6.02148036327958	panas_none	365.595310759485	71	5	12	10	n/a	n/a	n/a	n/a	n/a	n/a	n/a	n/a	500	0	BLOCKED	n/a	n/a	+	0	irritable	At this moment	2	3	14	208	NONE	n/a	0	-369.865651606285	0.954023520260466	-0.000220850793531286	10.2126504918107	647.660424469413	0	848.98174928615	-0.512627777721245	0.00026925454720863	41.8517133710227	645.87240584166	3	3	0	1	0	0	1
366.596840411574	11.0751324340999	panas_none	377.671972845674	72	5	12	10	n/a	n/a	n/a	n/a	n/a	n/a	n/a	n/a	500	0	BLOCKED	n/a	n/a	+	0	scared	At this moment	3	3	14	208	NONE	n/a	0.444444444444444	n/a	n/a	n/a	n/a	1307.4606741573	0.123750960799385	316.556170769336	1.16943051363882	-0.000412796736224764	18.9887309990085	933.993859649123	7	4	0	1	0	0	1
378.672708404511	2.51868499284978	reward_vlpfc	381.191393397361	73	2	13	10	0	0	0	0	250	250	250	750	500	0	BLOCKED	0.75	1	0	-1	jittery	At this moment	1	3	14	208	VLPFC	273.90575042367	0.667915106117353	n/a	n/a	n/a	n/a	1422.76691729323	0	518.84925980369	1.12559069466569	-0.000368449487989561	31.2423554997404	1157.58416602613	3	1	1	0	0	0	0
382.192227336347	2.51875904241206	reward_vlpfc	384.710986378759	74	2	13	10	0	0	0	0	250	250	250	750	500	0	BLOCKED	0.75	1	10	1	guilty	At this moment	1	3	14	208	VLPFC	391.122658133507	0.585518102372035	n/a	n/a	n/a	n/a	1069.79518072289	0.392006149116065	n/a	n/a	n/a	n/a	1113.01011378003	4	2	1	0	0	0	0
385.711685970664	2.51870967605714	reward_vlpfc	388.230395646721	75	2	13	10	0	0	0	0	250	250	250	750	500	0	BLOCKED	0.75	1	10	1	proud	At this moment	3	3	14	208	VLPFC	356.55104008317	0.98876404494382	n/a	n/a	n/a	n/a	1266.77777777778	0	494.427863963748	0.9853215363265	-0.000393187967477175	48.634635895389	993.850115295926	2	3	1	0	0	0	0
389.231331844568	2.51864444193239	reward_vlpfc	391.749976286501	76	2	13	10	0	0	0	0	250	250	250	750	500	0	BLOCKED	0.75	1	9	1	scared	At this moment	2	3	14	208	VLPFC	556.480587214231	0.759051186017478	n/a	n/a	n/a	n/a	1156.45077720207	0.272098385857033	n/a	n/a	n/a	n/a	1217.60612460401	4	4	1	0	0	0	0
392.750802115262	2.51874564298987	reward_vlpfc	395.269547758251	77	2	13	10	0	0	0	0	250	250	250	750	500	0	BLOCKED	0.75	1	10	1	strong	At this moment	3	3	14	208	VLPFC	324.498164445162	0.747815230961298	n/a	n/a	n/a	n/a	970.60396039604	0	101.679876258538	1.53208384693581	-0.000591146876644701	67.2662905928884	894.34665641814	2	5	1	0	0	0	0
396.270266038865	2.51877208924293	reward_vlpfc	398.789038128108	78	2	13	10	0	0	0	0	250	250	250	750	500	0	BLOCKED	0.75	1	3	-1	hostile	At this moment	2	3	14	208	VLPFC	506.703423440456	0	5534.14778973235	-4.16248779440444	0.000950064019301279	28.16093585773	1033.91885143571	0	150.91336202718	1.45992321593998	-0.000583312322011273	30.8228837518252	897.575710991545	0	6	1	0	0	0	0
399.789835394889	2.51874070635438	reward_vlpfc	402.308576101243	79	2	13	10	0	0	0	0	250	250	250	750	500	0	BLOCKED	0.75	1	8	1	ashamed	At this moment	5	3	14	208	VLPFC	273.109894126654	0	11353.7000325682	-9.72511892049007	0.00222939085515534	27.0471506006577	875.202247191011	0	210.962885318167	1.38816028136912	-0.000531439071102275	16.07143020524	941.022290545734	0	7	1	0	0	0	0
403.30951194647	2.51857885518666	reward_vlpfc	405.828090801656	80	2	13	10	0	0	0	0	250	250	250	750	500	0	BLOCKED	0.75	-1	0	1	inspired	At this moment	3	3	14	208	VLPFC	789.83504229784	0	9796.96354816452	-8.49175701297466	0.00197877964330046	33.7605860310943	795.496878901373	0	59.1333175021198	1.44861428696533	-0.000557923220355252	15.5084414107783	822.694081475788	0	8	1	0	0	0	0
406.833745013535	6.01683851450684	panas_none	412.850583528042	81	5	14	10	n/a	n/a	n/a	n/a	n/a	n/a	n/a	n/a	500	0	BLOCKED	n/a	n/a	+	0	scared	At this moment	1	3	14	208	NONE	n/a	0.50936329588015	n/a	n/a	n/a	n/a	734.743002544529	0	-227.648645739972	1.59840942245124	-0.000782310091625508	19.2832862354521	490.398923904689	3	1	0	1	0	1	1
413.851310976684	6.02150152033568	panas_none	419.87281249702	82	5	14	10	n/a	n/a	n/a	n/a	n/a	n/a	n/a	n/a	500	0	BLOCKED	n/a	n/a	+	0	jittery	At this moment	4	3	14	208	NONE	n/a	0	589.941957167973	0.13503867769081	-3.66013790530925e-05	11.6652777774148	709.986267166042	0.229823212913144	919.611373590937	-0.548334842642936	0.000276307053606465	16.9314647673538	703.60878243513	3	2	0	1	0	1	1
420.856920053631	6.02173495268818	panas_none	426.878655006319	83	5	14	10	n/a	n/a	n/a	n/a	n/a	n/a	n/a	n/a	500	0	BLOCKED	n/a	n/a	+	0	strong	At this moment	4	3	14	208	NONE	n/a	0.196004993757803	1924.67727930213	-1.33377022365864	0.000342527258320615	9.51049250670999	639.958074534161	0	529.406218508269	0.347080860725511	-0.000204435306341253	20.5448285424995	648.258262874712	2	3	0	1	0	1	1
427.879362355798	8.5069333296716	panas_none	436.38629568547	84	5	14	10	n/a	n/a	n/a	n/a	n/a	n/a	n/a	n/a	500	0	BLOCKED	n/a	n/a	+	0	attentive	At this moment	3	3	14	208	NONE	n/a	0	2060.57616206481	-1.04645348119246	0.000294499404323472	39.6169578813666	1177.9088639201	0	1427.73610262505	-1.10630666272034	0.000659293966928496	15.168875548015	1039.78170637971	9	4	0	1	0	1	1
437.387078142375	2.51871743360158	punish_rtpj	439.905795575976	85	3	15	10	750	250	250	250	0	0	0	0	500	0	BLOCKED	0.25	1	2	-1	interested	At this moment	2	3	14	208	RTPJ	272.894092559814	0.388264669163546	n/a	n/a	n/a	n/a	1483.01224489796	0	741.648915980406	1.29339487373892	-0.000473136732296	31.4580534106963	1431.87778631822	1	1	0	0	1	0	0
440.906653140277	2.51871073389054	punish_rtpj	443.425363874167	86	3	15	10	750	250	250	250	0	0	0	0	500	0	BLOCKED	0.25	1	7	1	enthusiastic	At this moment	5	3	14	208	RTPJ	522.93543690443	0	8627.40200637969	-7.05905697884943	0.00164418362684039	14.0502616379842	1141.13108614232	0	873.202109079916	0.571096510663536	-0.000133146518752911	33.1934213702017	1243.67717140661	1	2	0	0	1	0	0
444.426071223646	2.51879113057259	punish_rtpj	446.944862354219	87	3	15	10	750	250	250	250	0	0	0	0	500	0	BLOCKED	0.25	1	3	-1	proud	At this moment	4	3	14	208	RTPJ	790.65558180213	0.655430711610487	n/a	n/a	n/a	n/a	1106.39492753623	0	344.806373533396	1.47801359569346	-0.000670405477600344	46.4505788374045	1022.95849346656	2	3	0	0	1	0	0
447.945653626531	2.53550023466352	punish_rtpj	450.481153861195	88	3	15	10	750	250	250	250	0	0	0	0	500	0	BLOCKED	0.25	1	3	-1	distressed	At this moment	4	3	14	208	RTPJ	724.419319331646	0	5909.07040604989	-4.50032300386232	0.00109092166787809	29.0742120673517	1326.89887640449	0.269792467332821	n/a	n/a	n/a	n/a	1080.99473684211	1	4	0	0	1	0	0
451.465254718095	2.51876151072975	punish_rtpj	453.984016228825	89	3	15	10	750	250	250	250	0	0	0	0	500	0	BLOCKED	0.25	1	0	-1	jittery	At this moment	3	3	14	208	RTPJ	773.860439151525	0.545568039950062	n/a	n/a	n/a	n/a	1269.26648351648	0	571.230003360287	1.25156227965655	-0.000488365936760686	56.6797244955262	1209.53189853958	2	5	0	0	1	0	0
454.984663280845	2.51875868979096	punish_rtpj	457.503421970636	90	3	15	10	750	250	250	250	0	0	0	0	500	0	BLOCKED	0.25	1	4	-1	enthusiastic	At this moment	2	3	14	208	RTPJ	673.912943810225	1	n/a	n/a	n/a	n/a	n/a	0	207.054359253748	1.57491027454957	-0.000595009440081764	19.0194191265248	1048.41506533436	2	6	0	0	1	0	0
458.504715722024	2.53492264819141	punish_rtpj	461.039638370216	91	3	15	10	750	250	250	250	0	0	0	0	500	0	BLOCKED	0.25	1	3	-1	attentive	At this moment	1	3	14	208	RTPJ	73.2420549094677	0.631710362047441	n/a	n/a	n/a	n/a	1234.7220338983	0	571.533954970478	0.72513151406546	-0.000253888421167977	61.962926290199	968.724058416603	2	7	0	0	1	0	0
462.023768846929	2.51883661812542	punish_rtpj	464.542605465055	92	3	15	10	750	250	250	250	0	0	0	0	500	0	BLOCKED	0.25	1	6	1	ashamed	At this moment	4	3	14	208	RTPJ	273.877541065216	0	11376.7268791827	-9.70138498152478	0.00223150223776322	28.5659102919401	963.50936329588	0.24750192159877	321.180681610622	1.20469416936159	-0.000362967354132395	34.72478525548	996.760980592441	2	8	0	0	1	0	0
465.526556459785	6.02164221444724	panas_none	471.548198674232	93	5	16	10	n/a	n/a	n/a	n/a	n/a	n/a	n/a	n/a	500	0	BLOCKED	n/a	n/a	+	0	active	At this moment	5	3	14	208	NONE	n/a	0	607.822791761601	-0.346334179421444	0.000173594829933936	10.9916088902191	654.269662921348	0.135280553420446	-380.104173257943	2.74653587593229	-0.00144969701010117	49.6905838165356	764.384	1	1	0	1	0	0	0
472.549034376234	6.02152549830078	panas_none	478.570559874535	94	5	16	10	n/a	n/a	n/a	n/a	n/a	n/a	n/a	n/a	500	0	BLOCKED	n/a	n/a	+	0	enthusiastic	At this moment	3	3	14	208	NONE	n/a	1	n/a	n/a	n/a	n/a	n/a	1	n/a	n/a	n/a	n/a	n/a	2	2	0	1	0	0	0
479.554631816834	6.02171837967632	panas_none	485.576350196511	95	5	16	10	n/a	n/a	n/a	n/a	n/a	n/a	n/a	n/a	500	0	BLOCKED	n/a	n/a	+	0	determined	At this moment	4	3	14	208	NONE	n/a	0.176029962546816	1016.2809532779	-0.512927261027131	0.000172466696952596	9.94773873443013	691.865151515152	0	676.729787800072	0.0101819345956533	1.23831526662715e-05	14.0943731253232	695.643351268255	4	3	0	1	0	0	0
486.560408034146	5.38765890240671	panas_none	491.948066936553	96	5	16	10	n/a	n/a	n/a	n/a	n/a	n/a	n/a	n/a	500	0	BLOCKED	n/a	n/a	+	0	excited	At this moment	5	3	14	208	NONE	n/a	0.627965043695381	n/a	n/a	n/a	n/a	1208.1744966443	0.445042275172944	n/a	n/a	n/a	n/a	990.139889196676	3	4	0	1	0	0	0
